acc_X,acc_Y,acc_Z,gyro_X,gyro_Y,gyro_Z
599,1166,4514,137,611,-201
556,1216,4423,186,679,-245
404,1316,4214,216,761,-284
204,1464,3932,155,837,-297
77,1528,3624,47,876,-294
12,1469,3318,-74,876,-293
-51,1412,3039,-180,844,-307
-147,1325,2782,-245,776,-359
-280,1188,2583,-311,683,-418
-408,1029,2417,-370,582,-465
-524,940,2270,-384,466,-517
-649,888,2196,-366,331,-575
-732,863,2109,-348,193,-628
-783,798,2018,-389,59,-673
-786,708,1997,-472,-71,-698
-757,692,1955,-480,-211,-726
-704,647,1903,-494,-353,-767
-629,527,1912,-523,-492,-822
-562,348,1990,-542,-624,-882
-528,149,2108,-514,-747,-936
-503,19,2215,-443,-854,-976
-454,-73,2284,-356,-946,-1006
-339,-135,2329,-330,-1031,-1007
-188,-235,2425,-355,-1122,-987
-29,-384,2544,-378,-1198,-973
70,-509,2615,-352,-1252,-965
170,-648,2616,-333,-1292,-959
170,-648,2616,-333,-1292,-959
271,-869,2684,-312,-1340,-961
351,-1152,2833,-243,-1407,-965
462,-1349,2965,-121,-1470,-952
596,-1491,3118,-43,-1518,-897
709,-1561,3254,10,-1540,-803
741,-1629,3271,27,-1524,-689
747,-1712,3287,-16,-1493,-567
743,-1723,3438,58,-1496,-466
799,-1633,3559,243,-1526,-384
853,-1443,3638,309,-1552,-264
1039,-1361,4015,334,-1582,-151
1332,-963,3631,151,-1517,-61
1236,-1672,2471,583,-1762,-210
1597,-2132,2952,709,-2166,-88
2093,-2527,4324,366,-2343,168
2385,-2503,5587,215,-2232,401
2387,-2182,6164,313,-1922,570
2396,-1632,6000,552,-1558,662
2425,-1191,5719,648,-1246,679
2379,-948,5647,812,-1037,595
2263,-798,5702,977,-874,494
2261,-724,5774,1100,-727,431
2320,-767,5689,1130,-597,419
2366,-812,5300,1017,-487,479
2366,-1010,4057,636,-497,550
2153,-1800,4451,793,-777,579
2209,-2078,5761,1056,-839,825
2412,-1575,6241,1413,-631,1101
2533,-595,6239,1963,-357,1276
2706,564,6095,2367,-79,1380
2889,1581,5912,2506,142,1378
2934,2151,5857,2554,301,1247
2867,2284,5855,2496,451,1086
2680,2094,5721,2307,621,961
2389,1871,5279,2113,774,909
2067,2040,4754,1834,868,948
1868,2592,4377,1472,877,983
1725,3054,4122,1193,808,913
1683,3115,4146,940,703,785
1729,2863,4313,767,614,636
1729,2460,4460,683,584,502
1763,2175,4482,659,606,441
1889,2271,4607,682,652,432
1922,2557,4786,691,745,416
1931,2808,4665,724,860,356
1939,2813,4451,703,944,271
1864,2540,4226,626,988,201
1771,2230,4089,505,993,202
1671,2118,4019,420,980,254
1533,2043,3902,412,975,293
1387,1966,3677,538,945,330
1367,2433,3554,448,918,413
1358,3023,3521,145,915,413
1307,3194,3540,-78,919,269
1292,3161,3516,-237,928,82
1313,3125,3471,-506,951,-78
1332,2829,3448,-764,964,-258
1256,2273,3497,-761,959,-408
1227,2010,3595,-823,985,-426
1193,1900,3579,-871,1029,-411
1142,1897,3442,-875,1071,-396
1096,1909,3306,-902,1083,-391
1045,1806,3216,-915,1066,-405
960,1666,3195,-907,1026,-418
850,1567,3154,-892,979,-411
747,1563,3104,-867,926,-389
680,1556,3114,-849,871,-379
694,1504,3211,-871,813,-366
717,1418,3344,-930,768,-332
688,1256,3408,-1086,748,-264
688,1256,3408,-1086,748,-264
636,1138,3546,-1119,747,-204
636,1139,3440,-944,748,-213
612,949,3527,-846,757,-236
522,773,3502,-674,779,-269
432,708,3377,-515,804,-283
306,705,3246,-438,820,-281
242,731,3165,-377,807,-276
274,739,3137,-298,766,-292
290,679,3172,-251,725,-317
247,586,3199,-219,695,-338
191,471,3180,-226,676,-345
79,398,3136,-210,657,-346
-7,452,3084,-199,627,-339
-39,532,3070,-207,589,-333
-76,551,3091,-215,545,-351
-137,563,3141,-237,496,-362
-160,592,3259,-244,446,-368
-103,654,3386,-145,394,-409
-35,724,3514,109,336,-506
-332,765,3264,255,295,-605
-553,608,3169,-61,306,-569
-536,563,3052,-225,274,-525
-427,514,3056,-342,186,-504
-224,365,3271,-427,90,-502
-80,114,3592,-526,25,-489
-61,-71,3851,-605,21,-433
-140,-58,3844,-591,63,-368
-239,-8,3762,-595,103,-310
-303,42,3647,-590,120,-275
-359,55,3556,-578,106,-264
-362,39,3538,-589,73,-261
-371,44,3599,-589,32,-264
-461,110,3674,-615,-9,-265
-429,166,3756,-633,-46,-265
-301,136,3786,-583,-77,-304
-216,-24,3862,-520,-111,-367
-184,-204,3931,-437,-140,-414
-201,-387,3978,-412,-148,-421
-248,-433,4024,-406,-146,-388
-227,-383,4027,-387,-147,-336
-130,-367,4060,-383,-158,-297
-38,-420,4168,-376,-175,-273
15,-567,4300,-393,-176,-246
-42,-686,4379,-396,-144,-199
-185,-680,4365,-355,-92,-132
-286,-539,4285,-290,-47,-58
-293,-320,4177,-209,-29,-2
-210,-118,4073,-131,-37,8
-94,-78,4117,-80,-62,-22
-19,-157,4233,-39,-88,-58
-14,-313,4312,-51,-89,-63
-4,-451,4382,-95,-68,-22
-4,-457,4419,-73,-38,34
-117,-303,4367,-34,0,89
-219,-85,4248,-39,34,142
-259,72,4128,-22,41,144
-284,103,4036,6,25,101
-334,90,3965,21,1,51
-360,60,3933,36,-31,9
-324,14,3973,52,-69,-27
-204,-10,4082,81,-106,-49
-77,-30,4182,77,-127,-52
6,-126,4264,23,-121,-49
6,-255,4288,3,-98,-41
-72,-323,4247,0,-74,-17
-157,-241,4194,-3,-59,34
-137,-81,4156,14,-65,77
-3,46,4153,50,-82,85
-3,46,4153,50,-82,85
109,101,4195,62,-96,71
151,82,4275,40,-94,52
138,49,4311,9,-67,38
81,29,4244,-5,-29,29
29,-18,4139,-12,0,15
-20,-65,4118,3,5,3
-93,-75,4142,2,1,10
-104,-57,4142,-19,7,27
-94,-39,4105,-18,12,30
-99,-49,4091,-11,5,24
-112,-58,4075,-13,0,22
-119,-60,4051,-27,-10,29
-146,-112,4105,-14,-22,20
-167,-105,4168,31,-32,12
-159,-16,4199,46,-30,25
-90,102,4217,50,-26,36
-45,174,4227,48,-21,24
-46,170,4236,22,-15,1
-55,66,4233,-4,-7,-21
-66,-75,4164,-13,0,-40
-73,-201,4112,-5,0,-46
-84,-225,4114,17,-7,-30
-68,-141,4129,28,-17,0
-25,-20,4129,36,-20,22
8,70,4192,39,-28,21
25,89,4259,30,-25,12
4,38,4275,31,-4,-1
-33,1,4253,63,18,-16
-97,19,4184,78,35,-12
-111,64,4112,62,43,3
-107,110,4054,53,35,11
-98,99,4022,30,21,6


-555,1238,3497,-223,142,-477
-637,1094,3305,-278,106,-481
-701,1080,3161,-304,43,-474
-662,1156,3073,-303,-34,-478
-528,1201,3110,-286,-124,-520
-426,1101,3215,-272,-196,-596
-404,857,3253,-283,-226,-666
-408,619,3165,-288,-236,-706
-410,471,3027,-275,-257,-713
-385,417,2903,-243,-301,-703
-355,419,2841,-236,-361,-683
-326,452,2873,-254,-425,-667
-305,487,2899,-254,-486,-673
-287,454,2961,-228,-541,-702
-211,446,3040,-208,-593,-728
-118,442,3161,-186,-643,-755
15,415,3218,-154,-670,-777
145,344,3199,-133,-683,-793
174,273,3155,-153,-694,-794
184,175,3138,-190,-711,-781
187,103,3151,-229,-745,-760
170,144,3134,-309,-784,-721
239,144,3275,-440,-819,-676
307,156,3379,-362,-859,-699
291,77,3329,-325,-875,-726
224,-92,3233,-374,-874,-732
172,-222,3207,-374,-902,-728
182,-252,3243,-331,-957,-709
281,-258,3287,-301,-1017,-692
416,-318,3373,-280,-1065,-689
582,-351,3354,-211,-1092,-699
663,-331,3330,-192,-1113,-698
760,-335,3308,-262,-1141,-680
912,-469,3368,-348,-1178,-664
1009,-738,3489,-362,-1225,-670
1018,-998,3633,-346,-1256,-637
1025,-1150,3736,-329,-1268,-555
1066,-1236,3784,-301,-1268,-451
1161,-1002,3821,-302,-1267,-343
1010,-1590,3447,-93,-1264,-327
1065,-1698,3119,32,-1367,-177
1136,-1668,2760,-189,-1498,-17
1211,-1605,3222,-137,-1677,52
1434,-1488,3769,-8,-1729,88
1734,-1214,4144,166,-1706,106
2074,-786,4425,262,-1639,113
2074,-786,4425,262,-1639,113
2357,-547,4608,212,-1532,65
2553,-693,4803,106,-1409,-17
2746,-1227,4981,10,-1288,-65
2793,-1902,5038,-67,-1156,-12
2669,-2401,4965,-42,-1020,138
2436,-2475,4651,118,-896,335
2246,-1925,3901,154,-793,550
2066,-1365,2625,390,-999,617
2307,-882,3679,523,-1390,643
2758,-687,5140,424,-1439,643
3027,-624,5717,568,-1256,561
3099,-816,5876,841,-1035,470
3098,-1010,5737,842,-731,514
2996,-979,5356,910,-446,601
2756,-956,4895,1080,-255,643
2567,-840,4457,1191,-140,694
2433,-579,4227,1290,-106,751
2435,-308,4381,1492,-116,771
2534,-4,4591,1675,-63,773
2528,239,4724,1847,30,746
2436,400,4831,1967,146,730
2431,624,4753,1983,287,777
2430,779,4540,1989,397,809
2418,783,4316,1964,462,825
2360,689,4203,1866,501,873
2204,672,4225,1781,530,957
2022,840,3975,1777,563,1050
1938,1262,3730,1674,552,1140
1929,1688,3796,1480,511,1169
1974,2137,3829,1320,476,1123
1997,2411,3976,1090,456,1014
1970,2548,4085,828,466,878
1982,2491,4261,579,494,738
2015,2315,4333,500,523,587
2042,2002,4265,471,560,461
2068,1655,4163,412,601,407
2134,1504,4150,364,629,427
2192,1585,4302,335,640,485
2215,1740,4592,328,669,536
2263,1982,4670,336,760,565
2301,2196,4565,385,855,530
2267,2176,4474,409,923,449
2145,1998,4413,374,982,379
1920,1918,4301,359,1032,352
1751,2047,4151,370,1049,353
1711,2273,4003,370,1033,336
1723,2316,3964,325,1000,266
1722,1933,3892,345,954,172
1700,1591,3907,354,891,164
1811,1607,4231,100,894,251
1858,2054,4262,-214,994,317
1765,2397,4160,-674,1093,305
1610,2214,4271,-719,1115,190
1697,2443,4133,-972,1200,152
1574,2100,3958,-1233,1263,16
1314,1605,3919,-1062,1251,-87
1267,1450,3967,-1159,1288,-53
1103,1405,3704,-1291,1347,-32
902,1342,3467,-1432,1360,-13
764,1240,3425,-1389,1297,-22
744,1160,3520,-1300,1224,-33
750,1151,3522,-1215,1169,-45
727,1180,3473,-1150,1117,-59
634,1175,3446,-1088,1063,-88
609,1166,3434,-1041,1014,-115
583,1142,3420,-1008,968,-153
543,1082,3509,-951,919,-196
584,1035,3538,-833,888,-245
594,895,3479,-718,883,-300
568,673,3418,-591,869,-365
568,673,3418,-591,869,-365
513,482,3406,-479,847,-399
471,388,3417,-379,820,-386
469,336,3455,-266,798,-367
495,255,3498,-151,796,-360
422,183,3531,-28,809,-358
321,190,3511,100,824,-349
187,293,3403,234,829,-344
64,367,3262,343,814,-360
-2,429,3187,390,770,-372
54,445,3149,423,707,-392
77,386,3058,468,641,-435
14,248,2972,449,568,-463
-47,138,2931,404,475,-449
-62,75,2840,317,377,-408
-159,-43,2890,194,274,-365
-165,-39,3069,117,173,-306
-53,46,3180,28,92,-241
59,60,3291,-52,28,-209
101,-42,3466,-109,-17,-203
74,-177,3600,-117,-31,-197
23,-245,3601,-112,-14,-173
-34,-163,3571,-95,0,-140
-85,-61,3576,-34,-13,-137
-111,-107,3561,-80,-21,-142
-50,-240,3536,-111,-26,-164
0,-428,3562,-82,-51,-196
-22,-534,3663,-65,-77,-192
-61,-389,3847,-57,-97,-145
16,41,4043,-34,-109,-90
212,451,4224,-40,-109,-76
339,570,4404,-99,-89,-123
323,472,4510,-162,-40,-186
267,306,4476,-214,19,-214
171,133,4345,-268,65,-213
96,16,4225,-313,92,-190
95,0,4175,-319,93,-161
115,-49,4258,-328,84,-146
89,-163,4287,-342,102,-144
-11,-283,4229,-351,147,-139
-134,-322,4089,-296,181,-131
-184,-255,3931,-223,180,-118
-183,-261,3958,-137,136,-125
-124,-257,4118,-82,95,-113
-22,-202,4261,-56,88,-81
30,-220,4360,-48,111,-66
44,-257,4413,-14,145,-53
66,-326,4438,6,195,-24
5,-471,4418,61,255,-2
-104,-499,4324,184,312,14
-185,-399,4200,293,361,31
-297,-340,4060,344,405,43
-394,-400,3965,393,427,61
-384,-195,4088,575,409,73
-376,668,3808,957,385,-28
-500,584,4026,686,361,-31
-493,577,4048,588,338,-30
-475,637,4027,536,323,-43
-483,682,3947,558,311,-101
-462,679,3883,609,281,-189
-456,586,3880,612,239,-256
-486,509,3901,562,207,-276
-482,429,3967,451,192,-245
-457,319,3988,393,186,-212
-486,304,3919,336,210,-162
-484,340,3940,291,226,-106
-433,452,3974,278,220,-53
-376,607,4015,209,225,7
-346,676,4025,154,237,21
-346,676,4025,154,237,21
-362,695,3966,102,254,-2
-400,685,3910,44,257,-28
-464,648,3883,-1,241,-58
-509,601,3881,-15,216,-97
-555,535,3865,-9,189,-142
-605,469,3839,-5,162,-178
-633,439,3812,-16,132,-191
-662,420,3886,-7,94,-201
-647,431,4045,86,49,-228
-561,420,4175,160,22,-241
-483,425,4219,135,39,-209
-451,458,4284,142,58,-177
-452,492,4263,158,78,-153


-609,754,4539,329,312,-219
-653,957,4560,311,302,-220
-672,1276,4639,297,292,-236
-661,1537,4677,267,301,-285
-659,1652,4605,182,317,-344
-678,1565,4434,40,320,-386
-678,1565,4434,40,320,-386
-658,1427,4238,-99,305,-394
-638,1366,4078,-219,277,-389
-702,1428,3947,-315,254,-383
-783,1625,3752,-375,250,-404
-796,1830,3439,-397,244,-478
-740,1800,3169,-436,216,-604
-751,1495,2944,-501,175,-739
-801,1077,2735,-597,125,-821
-863,751,2522,-699,55,-834
-926,563,2334,-798,-38,-803
-930,441,2192,-876,-149,-764
-950,273,2019,-933,-260,-741
-979,149,1814,-1006,-380,-709
-1000,44,1658,-1062,-524,-691
-993,-30,1547,-1083,-674,-699
-903,-152,1484,-1048,-822,-746
-753,-421,1467,-982,-972,-825
-580,-789,1597,-908,-1116,-894
-436,-1092,1977,-772,-1238,-938
-245,-1143,2334,-563,-1288,-950
-83,-1026,2495,-381,-1273,-946
18,-938,2541,-255,-1248,-957
124,-988,2501,-169,-1233,-983
212,-1231,2400,-92,-1253,-1007
271,-1525,2360,-39,-1304,-989
328,-1678,2437,20,-1370,-916
499,-1625,2507,135,-1447,-823
749,-1545,2565,177,-1523,-723
1033,-1642,2601,165,-1588,-652
1230,-1883,2787,104,-1653,-577
1294,-2069,3169,70,-1713,-478
1285,-2138,3646,139,-1717,-397
1220,-2025,4187,307,-1643,-341
1157,-1666,4672,521,-1484,-300
1196,-1191,4685,733,-1267,-288
1394,-934,4304,860,-1092,-326
1586,-1139,4054,816,-1039,-368
1844,-1687,4103,716,-1071,-365
1992,-2276,4347,570,-1089,-251
1933,-2546,4663,497,-1063,-44
1824,-2413,4984,548,-991,199
1775,-1968,5134,723,-884,394
1726,-1455,5100,901,-763,506
1620,-1087,5047,991,-660,542
1487,-923,4920,1012,-582,534
1400,-884,4811,1004,-538,520
1361,-931,4773,1038,-520,497
1271,-883,4772,1094,-504,502
1189,-625,4817,1193,-503,530
1283,-186,4954,1213,-473,561
1183,-185,3692,1196,-522,538
1275,-247,4387,1189,-818,576
1436,-180,5425,1033,-850,661
1428,-79,5658,1053,-694,693
1424,292,5522,1097,-514,728
1372,805,5262,1147,-389,703
1338,1154,5016,1135,-328,607
1386,1074,4941,1080,-313,476
1413,762,5012,1018,-311,389
1476,617,5066,966,-298,394
1565,654,5111,933,-274,444
1641,838,5167,903,-246,507
1777,1104,5266,849,-210,550
1867,1417,5633,803,-165,561
1917,1766,5990,768,-81,543
1971,1900,6135,673,57,505
1964,1722,5915,555,200,463
1902,1437,5755,410,290,456
1902,1437,5755,410,290,456
1859,1181,5803,364,349,471
1749,1145,5870,390,437,508
1696,1415,5806,436,551,547
1725,1799,5697,498,650,528
1788,2061,5695,521,722,450
1913,1892,5853,488,795,348
2094,1661,5943,366,923,300
2118,1633,5888,219,1067,296
1994,1761,5665,75,1197,308
1890,1997,5260,-144,1299,279
1641,1485,4978,-166,1322,169
1525,1084,4991,-159,1321,168
1431,1232,4970,-197,1357,233
1358,1550,4860,-215,1412,250
1296,1705,4697,-239,1474,194
1203,1646,4451,-245,1518,94
1006,1478,4304,-292,1537,13
809,1443,4322,-325,1541,-24
741,1472,4306,-309,1565,-56
658,1516,4157,-296,1616,-89
479,1592,3940,-297,1646,-110
341,1730,3733,-333,1642,-118
290,1793,3583,-374,1617,-153
250,1722,3457,-394,1582,-221
172,1599,3286,-471,1557,-265
73,1514,3312,-560,1525,-265
-17,1584,3274,-505,1487,-274
68,1606,3197,-346,1440,-317
6,1526,2816,-83,1367,-420
-126,1127,2380,-171,1289,-449
-180,563,2242,-440,1189,-382
-157,228,2491,-565,1073,-267
-96,265,2841,-377,998,-187
-183,379,2712,-135,1014,-176
-345,320,2473,-102,1063,-161
-280,252,2277,-163,1049,-102
-326,260,2700,37,985,-78
-897,526,1669,443,1014,-252
-896,427,1440,283,962,-287
-862,364,1424,392,750,-366
-824,218,1606,456,514,-439
-779,6,1813,533,310,-495
-736,-157,1914,613,132,-511
-672,-248,1959,628,-27,-480
-679,-315,2087,513,-173,-406
-698,-313,2293,325,-291,-295
-620,-284,2477,125,-388,-175
-441,-354,2681,-106,-467,-67
-297,-513,2968,-278,-539,16
-259,-620,3234,-401,-591,109
-291,-555,3577,-479,-626,222
-311,-235,3948,-415,-643,317
-312,189,4214,-320,-622,365
-316,555,4452,-214,-552,328
-273,800,4580,-47,-461,194
-250,861,4570,-1,-355,53
-268,784,4553,-105,-270,-33
-266,657,4535,-181,-218,-89
-305,462,4361,-201,-190,-154
-367,148,4188,-306,-181,-186
-417,-90,4129,-442,-200,-156
-530,-125,4248,-552,-246,-87
-532,11,4574,-550,-299,-21
-373,185,4762,-417,-301,-5
-282,289,4795,-391,-233,-16
-268,301,4784,-318,-163,-65
-316,211,4725,-174,-114,-130
-406,19,4646,-117,-59,-167
-406,19,4646,-117,-59,-167
-478,-185,4489,-145,0,-139
-531,-315,4286,-206,45,-62
-554,-335,4160,-234,50,31
-565,-196,4067,-180,20,115
-577,-35,4016,-124,-10,163
-618,85,4025,-74,-39,176
-612,216,4072,24,-62,162
-562,339,4098,118,-77,134
-529,308,4262,214,-88,84
-437,178,4387,386,-68,15
-423,188,4312,469,0,1
-437,247,4224,444,64,35
-440,385,4119,514,85,41
-488,508,4078,563,92,29
-500,619,4066,565,97,9
-461,710,4006,539,103,-15
-420,733,3977,488,99,-57
-384,687,4083,441,92,-104
-340,697,4221,458,91,-144
-366,706,4218,438,116,-163
-389,665,4146,376,146,-169
-399,589,4002,317,163,-169
-414,475,3880,226,151,-147
-451,407,3850,141,119,-103
-460,421,3827,80,86,-55
-427,446,3849,40,50,-19
-377,487,3925,29,20,-1
-332,510,4029,23,17,-1
-318,504,4136,53,39,-29
-336,534,4257,129,76,-65
-359,645,4181,210,129,-95
-395,678,4049,224,180,-125
-440,633,3989,229,206,-164
-493,579,3917,254,213,-197
-549,541,3829,253,202,-204
-545,512,3832,219,171,-180
-509,508,3886,224,129,-147
-490,533,4018,243,90,-111
-485,635,4079,262,78,-70
-492,734,4086,212,83,-22
-518,785,4071,167,90,1
-577,781,3997,148,94,0
-660,767,3909,116,84,0
-725,786,3834,95,53,1
-718,828,3761,63,7,5
-663,830,3761,12,-41,6
-573,789,3852,-10,-93,-8
-496,732,3990,2,-128,-21
-447,673,4122,12,-135,-15
-446,654,4181,30,-116,3
-449,680,4172,67,-79,14
-447,735,4096,110,-44,10
-442,755,4048,124,-22,3
-466,721,3992,127,-8,-13
-495,686,3934,120,-6,-25


-499,825,3117,-403,-394,-574
-496,681,3153,-446,-425,-589
-488,524,3154,-475,-453,-599
-498,433,3142,-493,-481,-593
-472,393,3085,-484,-509,-589
-419,328,3016,-489,-545,-590
-399,212,3002,-506,-589,-596
-382,107,3046,-547,-639,-577
-383,73,3030,-576,-683,-551
-397,43,2998,-588,-725,-540
-399,-72,2987,-582,-769,-549
-356,-217,3015,-543,-813,-561
-267,-317,3052,-479,-861,-572
-154,-464,3207,-447,-914,-566
-52,-595,3393,-420,-941,-548
38,-643,3515,-377,-938,-520
126,-663,3578,-308,-918,-497
139,-613,3565,-235,-882,-469
110,-480,3515,-177,-853,-434
113,-270,3414,-113,-845,-416
170,-159,3338,-101,-863,-419
239,-210,3375,-136,-908,-439
324,-418,3519,-195,-958,-449
359,-689,3647,-232,-992,-442
385,-886,3660,-240,-1003,-399
447,-982,3548,-215,-1002,-336
461,-1025,3462,-169,-1009,-285
423,-951,3404,-105,-1022,-243
406,-749,3386,2,-1046,-227
460,-533,3379,111,-1086,-247
606,-481,3482,166,-1141,-289
750,-554,3652,188,-1201,-326
895,-713,3887,136,-1249,-322
1137,-968,4050,51,-1262,-284
1272,-1294,4267,-23,-1243,-216
1242,-1465,4453,-14,-1208,-108
1241,-1332,4448,30,-1143,42
1251,-1051,4323,127,-1077,146
1192,-798,4111,262,-1037,166
1364,-440,4044,338,-1051,121
1239,-1141,3869,771,-1132,-20
1473,-865,3563,639,-1199,101
1592,-747,2801,368,-1457,166
1860,-755,3621,106,-1790,233
2117,-1149,4619,-164,-1845,281
2254,-1587,5350,-79,-1677,320
2296,-1719,5198,176,-1383,369
2188,-1505,4687,412,-1139,421
2160,-1036,4453,587,-1029,462
2243,-624,4385,711,-990,442
2389,-574,4432,714,-969,385
2574,-1027,4484,619,-940,345
2654,-1656,4572,537,-896,384
2557,-1944,4696,587,-828,504
2402,-1527,4828,842,-750,651
2356,-712,4970,1155,-662,756
2550,36,4924,1363,-555,775
2794,566,4187,1198,-491,708
2659,-97,4528,1298,-663,520
2647,-827,5505,1456,-675,572
2708,-860,5797,1471,-454,807
2634,-375,5736,1727,-216,1018
2612,464,5469,2045,-12,1152
2668,1126,5136,2169,151,1164
2668,1126,5136,2169,151,1164
2627,1356,4986,2211,255,1076
2510,1405,5030,2232,330,988
2380,1536,5080,2257,408,936
2347,1936,5038,2208,504,903
2350,2446,4921,2055,588,839
2325,2816,4953,1903,629,727
2325,2914,5089,1739,663,606
2332,2885,5153,1541,730,515
2318,2818,5208,1322,813,474
2181,2724,5157,1112,913,480
2026,2681,4945,941,1008,512
1948,2780,4727,837,1064,549
1863,2962,4636,773,1084,564
1815,3213,4439,665,1111,552
1781,3307,4188,561,1121,462
1730,3179,4112,506,1099,314
1673,2960,4170,500,1083,175
1749,2805,4223,528,1102,69
1912,2655,4198,548,1149,-23
1941,2508,4109,479,1206,-76
1900,2480,4044,385,1241,-85
1786,2555,3871,296,1271,-64
1704,2718,3550,128,1251,-42
1664,2553,3671,-53,1200,-72
1376,1988,3320,9,1163,-98
1251,2032,3125,-225,1093,41
1217,2404,3176,-599,1047,150
1139,2807,3263,-843,1029,118
1028,3046,3366,-1027,1027,-8
1027,3026,3427,-1183,1038,-184
1117,2803,3427,-1276,1056,-386
1171,2386,3464,-1359,1077,-565
1138,1895,3539,-1457,1108,-665
1049,1468,3465,-1552,1139,-650
1019,1293,3340,-1686,1134,-534
965,1246,3389,-1834,1097,-406
893,1154,3498,-1894,1061,-315
794,1087,3581,-1811,1036,-259
718,1132,3523,-1622,1031,-232
613,1152,3343,-1436,1023,-245
478,1090,3311,-1259,985,-280
466,1092,3408,-1080,956,-315
455,1024,3263,-909,924,-363
402,917,3299,-812,856,-384
402,728,3561,-738,816,-393
423,638,3705,-491,843,-424
350,677,3709,-167,905,-464
193,603,3453,46,970,-500
96,513,3056,86,991,-473
132,439,2804,93,921,-417
187,327,2771,105,813,-375
109,224,2832,127,726,-338
7,244,2801,152,668,-288
-46,380,2710,182,618,-243
-111,567,2666,212,567,-238
-167,727,2606,233,513,-271
-180,758,2572,159,454,-313
-194,630,2650,38,394,-360
-245,524,2787,-5,340,-401
-252,560,2873,3,307,-419
-225,611,2914,-36,290,-421
-185,518,2775,-143,270,-437
-139,247,2692,-272,223,-466
-151,-192,2745,-292,150,-513
-274,-638,2800,-269,90,-521
-410,-794,2846,-271,47,-451
-464,-676,2982,-228,-1,-373
-495,-462,3147,-135,-47,-351
-499,-260,3174,-63,-64,-364
-499,-260,3174,-63,-64,-364
-503,-186,3226,-58,-89,-392
-704,-354,3486,-117,-121,-396
-483,-413,3550,-158,-113,-333
-198,-309,3730,-203,-136,-272
-267,-280,3948,-217,-176,-254
-356,-254,3920,-319,-170,-197
-356,-262,3891,-475,-166,-118
-354,-250,3972,-585,-185,-53
-360,-208,4143,-664,-207,1
-314,-163,4354,-661,-214,24
-248,-144,4473,-615,-187,22
-182,-171,4537,-567,-138,6
-175,-184,4521,-518,-86,-4
-187,-177,4444,-508,-39,6
-229,-197,4359,-534,-2,19
-260,-280,4340,-528,15,20
-264,-340,4335,-448,20,8
-255,-325,4408,-344,22,0
-263,-237,4490,-226,36,-4
-316,-61,4498,-180,69,17
-324,116,4464,-164,98,36
-289,208,4464,-117,111,11
-254,203,4423,-49,126,-53
-237,338,4447,89,132,-163
-302,531,4247,315,128,-358
-425,136,4347,206,138,-439
-486,-96,4299,208,155,-448
-535,-146,4160,236,172,-410
-543,-157,4040,214,172,-338
-524,-151,4040,186,143,-255
-505,-133,4079,221,95,-188
-495,-95,4085,212,62,-114
-464,-76,4095,186,48,-48
-441,-61,4100,199,32,-3
-435,-21,4084,201,22,37
-461,47,4073,171,22,84
-476,152,4030,141,24,119
-438,239,4009,114,17,129
-357,285,4013,119,-2,106
-316,252,4060,135,-23,60
-284,207,4136,181,-34,9
-277,223,4155,226,-32,-26
-282,262,4182,204,-18,-30
-261,304,4204,161,0,-23
-245,325,4242,119,18,-23
-222,312,4294,107,39,-38
-220,331,4282,127,60,-63
-250,308,4256,86,85,-70
-280,271,4227,37,106,-64
-291,275,4192,29,115,-57
-288,263,4116,14,119,-54
-294,232,4052,-11,122,-55
-302,171,4024,-37,110,-56
-317,88,4024,-60,94,-54
-363,45,4025,-56,77,-49
-426,49,4051,-55,62,-29
-412,94,4052,-43,42,1
-386,158,4058,-51,27,30
-357,199,4104,-42,15,40
-340,197,4122,-21,4,32
-369,132,4133,-23,10,23
-423,90,4079,-6,22,16
-454,69,3996,2,30,13
-476,62,3950,17,25,13
-476,79,3911,38,13,19


-639,-31,2709,-282,-232,-305
-617,179,2718,-264,-313,-306
-634,272,2617,-266,-370,-355
-694,306,2459,-277,-432,-423
-720,360,2368,-299,-522,-489
-653,329,2384,-333,-631,-563
-522,192,2430,-344,-739,-640
-398,-113,2447,-375,-832,-696
-344,-485,2405,-415,-910,-708
-319,-765,2327,-440,-988,-677
-267,-914,2327,-413,-1077,-635
-224,-892,2420,-329,-1169,-600
-103,-704,2572,-228,-1241,-591
82,-462,2789,-108,-1290,-631
82,-462,2789,-108,-1290,-631
232,-273,3112,-27,-1310,-696
351,-202,3413,-12,-1285,-758
496,-342,3464,-39,-1225,-804
587,-753,3351,-70,-1183,-823
632,-1134,3175,-124,-1187,-759
715,-1292,3152,-160,-1232,-632
818,-1204,3304,-133,-1284,-512
856,-965,3325,-95,-1298,-430
871,-760,3226,-65,-1292,-408
869,-773,3144,-19,-1320,-450
917,-946,3077,11,-1381,-494
1047,-1207,3009,41,-1451,-510
1221,-1392,3123,103,-1537,-502
1480,-1358,3490,226,-1608,-480
1714,-1177,3911,331,-1616,-448
1845,-1001,4289,366,-1558,-422
1968,-967,4401,357,-1459,-399
2102,-1205,4215,307,-1357,-372
2082,-1648,4054,223,-1298,-304
1992,-1777,3935,229,-1269,-182
2013,-1246,4346,332,-1263,-63
1884,-605,3558,409,-1159,-53
1737,-560,2746,686,-1408,-159
2074,-543,3800,464,-1633,-123
2267,-945,4158,241,-1624,-119
2322,-1322,4378,199,-1584,-91
2310,-1396,4327,200,-1510,-5
2345,-1293,4178,283,-1430,58
2500,-1169,4240,449,-1373,51
2594,-1051,4554,584,-1301,33
2570,-870,4803,658,-1192,49
2583,-774,4767,721,-1076,78
2547,-862,4542,730,-995,118
2532,-996,4391,696,-952,186
2497,-947,4287,738,-916,249
2428,-723,4343,873,-892,266
2480,-413,4602,1006,-868,266
2708,-23,4787,1127,-819,255
2926,119,4942,1155,-754,216
3108,-98,5073,1103,-683,192
3224,-478,5189,1025,-598,236
3218,-740,5314,977,-485,356
3077,-664,5251,1005,-343,508
2998,-224,5084,1110,-210,623
2996,272,4993,1195,-103,660
2989,639,4718,1192,-30,613
2888,461,5064,1254,-14,518
2944,340,5257,1273,92,524
2998,336,5090,1283,212,549
3047,265,4801,1240,300,594
3224,118,4702,1169,346,649
3322,-22,4763,1101,379,740
3280,199,5037,1013,408,911
3259,819,5340,942,476,1068
3215,1341,5310,913,596,1090
3057,1618,5048,870,722,1013
2914,1787,4946,765,824,886
2803,1717,4829,700,934,705
2684,1585,4784,667,1038,526
2531,1457,4831,650,1139,392
2484,1352,4867,691,1236,302
2430,1112,4819,690,1365,260
2412,1449,4317,501,1489,294
2324,1541,4113,131,1550,229
2068,794,3814,269,1495,119
2003,559,4026,376,1374,214
1999,953,4386,376,1306,379
2079,1515,4649,346,1341,462
2003,1841,4555,358,1443,411
1900,2013,4345,412,1522,290
1900,2013,4345,412,1522,290
1712,1725,4157,530,1565,120
1636,1576,3963,529,1599,38
1559,1678,3778,348,1635,7
1372,1703,3585,137,1638,-39
1279,1602,3487,-78,1602,-74
1208,1471,3429,-268,1556,-98
1060,1319,3428,-430,1507,-108
901,1327,3387,-551,1475,-93
796,1479,3300,-575,1444,-111
789,1559,3330,-549,1395,-177
849,1467,3441,-526,1350,-254
917,1238,3599,-507,1326,-311
911,1019,3685,-493,1322,-315
887,904,3586,-464,1332,-276
843,854,3372,-390,1325,-243
840,826,3172,-360,1283,-201
815,742,3132,-400,1207,-151
758,751,3213,-499,1127,-74
782,832,3470,-554,1072,-16
786,858,3660,-479,1063,-31
662,781,3608,-416,1108,-64
459,766,3473,-323,1158,-94
291,905,3259,-162,1189,-152
182,1046,3116,-30,1190,-244
124,1063,3036,87,1165,-364
109,998,2963,145,1118,-464
69,796,2836,92,1046,-508
14,496,2658,-18,942,-487
-2,293,2669,-195,820,-393
-26,186,2763,-334,720,-291
-126,166,2701,-372,658,-225
-290,198,2520,-412,603,-179
-444,331,2424,-387,525,-174
-517,488,2310,-285,444,-246
-591,423,2226,-198,356,-375
-595,224,2174,-191,270,-480
-508,91,2300,-209,152,-530
-361,72,2644,-240,28,-538
-171,8,2931,-318,-45,-528
-78,-193,3048,-400,-74,-522
-115,-421,3101,-448,-94,-505
-236,-675,3274,-471,-117,-472
-343,-719,3350,-421,-122,-415
-408,-587,3349,-340,-127,-360
-423,-477,3365,-220,-159,-355
-438,-449,3453,-102,-214,-379
-412,-431,3646,-30,-270,-390
-266,-415,3919,-40,-309,-376
-112,-435,4250,-92,-315,-348
-4,-431,4504,-103,-283,-320
32,-369,4614,-119,-214,-284
1,-305,4659,-189,-139,-229
-1,-259,4631,-267,-75,-171
-40,-272,4531,-325,-23,-132
-126,-356,4471,-334,3,-119
-236,-394,4409,-279,19,-120
-309,-384,4326,-212,29,-123
-347,-374,4230,-138,31,-135
-335,-378,4181,-85,20,-152
-276,-395,4216,-34,2,-162
-174,-352,4315,29,-16,-164
-74,-255,4393,71,-20,-155
-15,-243,4541,-4,0,-119
0,-202,4676,68,35,-119
29,-169,4581,169,96,-137
-8,-253,4506,127,151,-119
-74,-280,4478,102,189,-71
-145,-193,4354,136,216,-31
-145,-193,4354,136,216,-31
-193,-79,4298,159,225,-3
-206,-5,4283,276,217,-29
-309,-2,4191,321,226,-62
-381,-76,4089,314,234,-81
-361,-127,4035,307,224,-82
-359,-167,4033,279,201,-61
-396,-157,4000,246,178,-20
-409,-128,3995,224,155,22
-395,-94,4053,219,130,51
-345,40,4094,239,113,75
-293,156,4186,220,101,98
-274,248,4222,193,105,113
-220,264,4201,130,112,133
-230,326,4189,105,113,144
-283,411,4126,121,116,132
-328,440,4037,114,115,101
-351,436,3938,121,102,52
-388,412,3872,106,79,9
-378,340,3887,76,52,-28
-327,232,3918,48,31,-61
-333,126,3966,14,22,-76
-380,71,3971,-9,23,-66
-411,94,3932,-19,24,-44
-393,154,3896,-31,18,-27
-351,180,3910,-68,0,-7
-328,192,4020,-89,-24,4
-335,206,4121,-58,-33,-4
-354,228,4164,-38,-19,-12
-342,286,4162,-20,-4,-9
-356,368,4139,-3,6,-14
-381,428,4131,-10,16,-27
-383,401,4123,-9,32,-61
-431,306,4068,-8,45,-103
-474,192,3984,-30,39,-109
-467,111,3947,-50,16,-89
-459,65,3945,-58,-16,-63
-421,35,3961,-58,-46,-33
-353,63,4041,-47,-76,0
-279,145,4185,-34,-93,27
-212,242,4248,-15,-83,37
-216,254,4227,-24,-58,36
-264,207,4173,-51,-39,34
-330,158,4068,-60,-27,30
-371,81,4002,-64,-31,26
-376,53,4091,-38,-46,19


-466,1010,3900,-242,204,-415
-504,777,3639,-281,206,-452
-531,585,3404,-321,187,-456
-588,450,3190,-349,160,-447
-646,411,3016,-348,125,-437
-664,481,2859,-331,82,-439
-670,525,2747,-314,31,-472
-709,404,2632,-305,-20,-518
-756,250,2493,-325,-87,-535
-796,158,2438,-357,-176,-517
-802,124,2397,-378,-265,-497
-795,124,2406,-384,-350,-497
-789,161,2379,-372,-428,-507
-732,190,2329,-365,-506,-534
-659,130,2339,-360,-593,-575
-642,0,2409,-358,-682,-612
-598,-113,2442,-352,-761,-632
-506,-271,2428,-347,-838,-652
-404,-457,2460,-323,-913,-674
-313,-539,2590,-277,-978,-676
-228,-493,2632,-230,-1023,-663
-228,-493,2632,-230,-1023,-663
-137,-441,2675,-212,-1070,-653
-40,-406,2904,-204,-1131,-648
26,-451,3018,-176,-1170,-656
91,-608,3059,-164,-1196,-656
164,-744,3124,-131,-1241,-641
266,-805,3102,-111,-1282,-610
335,-946,3054,-101,-1326,-588
370,-1174,2892,-99,-1369,-550
440,-1265,2628,-130,-1431,-464
517,-1290,2621,-135,-1537,-405
559,-1385,2919,-91,-1645,-391
714,-1279,3259,19,-1697,-369
988,-1096,3502,210,-1700,-385
1263,-960,3644,400,-1678,-434
1558,-921,3853,475,-1658,-456
1854,-1059,4167,443,-1631,-438
2031,-1377,4441,357,-1582,-361
2044,-1711,4529,244,-1508,-203
2012,-1883,4360,200,-1430,-17
1962,-1848,4124,217,-1385,157
1902,-1664,4378,277,-1383,290
1920,-1196,4669,482,-1336,343
1964,-709,4500,666,-1218,329
2065,-399,4551,729,-1121,256
1884,-854,3197,720,-1037,131
1783,-1372,2903,731,-1346,147
2039,-1444,4304,371,-1509,341
2149,-1322,5155,488,-1412,430
2200,-979,5411,779,-1184,484
2165,-549,4860,1006,-935,496
2147,-391,4365,1076,-813,478
2114,-727,3838,1107,-825,465
2140,-1002,3868,990,-936,545
2159,-1188,4274,884,-1009,673
2132,-990,4508,976,-1005,780
2034,-312,4666,1147,-908,812
2022,518,4646,1339,-781,726
2173,1001,4727,1462,-704,555
2404,921,4750,1491,-644,367
2616,423,4800,1371,-594,293
2724,53,4953,1145,-549,407
2812,125,5106,967,-494,625
2640,398,5111,959,-416,770
2333,828,5016,1008,-318,840
2274,1386,4886,1076,-227,831
2305,1644,4870,1129,-165,723
2380,1727,5101,1106,-110,623
2524,1747,5301,1111,-36,539
2597,1775,5430,1095,66,486
2605,1857,5491,1056,177,462
2616,1945,5537,1012,288,441
2578,1996,5373,914,407,431
2556,1939,5251,718,494,449
2550,1801,5093,662,549,434
2511,1633,4975,586,581,443
2499,1552,5014,438,604,505
2450,1590,5003,357,649,549
2321,1664,4833,322,716,547
2243,1750,4611,291,779,505
2247,1742,4406,282,802,417
2271,1584,4492,260,810,317
2277,1371,4581,259,862,232
2262,1218,4551,280,946,185
2208,1203,4450,299,1029,169
2190,1302,4363,272,1090,171
2160,1415,4340,235,1126,167
2063,1533,4345,173,1153,164
1973,1561,4352,101,1184,152
1803,1240,3974,168,1201,128
1803,1240,3974,168,1201,128
1735,1295,3868,67,1175,186
1720,1632,3893,-143,1168,222
1677,1846,3913,-320,1173,168
1593,1804,4006,-448,1185,59
1553,1596,4012,-524,1224,-35
1585,1435,3866,-633,1261,-83
1591,1364,3985,-779,1270,-93
1496,1327,4197,-875,1299,-95
1328,1418,4262,-924,1364,-85
1192,1548,4156,-936,1439,-85
1108,1691,3915,-907,1485,-118
1003,1719,3689,-819,1473,-197
867,1410,3518,-779,1421,-278
750,1032,3372,-785,1345,-288
685,883,3358,-785,1244,-221
716,1002,3463,-710,1135,-143
777,1256,3574,-643,1064,-101
821,1459,3754,-608,1035,-128
861,1548,3803,-562,1049,-205
824,1418,3729,-560,1078,-294
761,1175,3692,-587,1099,-355
751,942,3649,-552,1113,-384
689,659,3558,-494,1132,-395
551,480,3456,-467,1152,-358
381,480,3315,-411,1154,-295
239,649,3136,-339,1125,-240
195,779,2996,-305,1069,-232
191,689,2891,-324,1003,-263
144,506,2784,-381,931,-284
67,257,2712,-443,857,-285
-8,161,2790,-450,773,-264
-51,338,2904,-402,702,-244
-28,550,2959,-367,670,-274
-21,453,2919,-350,658,-375
-120,42,2815,-370,645,-471
-221,-333,2781,-390,607,-490
-315,-473,2712,-315,548,-463
-359,-443,2585,-279,476,-415
-326,-398,2609,-308,378,-375
-293,-399,2865,-306,281,-366
-269,-421,3078,-303,223,-361
-218,-529,3175,-336,199,-343
-246,-678,3213,-363,185,-317
-341,-699,3286,-334,162,-284
-354,-454,3389,-284,135,-246
-315,-206,3520,-267,112,-246
-321,-140,3602,-271,97,-293
-386,-337,3686,-302,88,-344
-419,-468,3706,-329,78,-350
-398,-465,3698,-360,62,-322
-407,-575,3737,-393,30,-310
-424,-727,3760,-418,0,-285
-448,-846,3785,-426,-32,-245
-449,-901,3891,-418,-65,-199
-393,-898,4017,-356,-79,-169
-384,-915,4045,-265,-61,-167
-423,-926,4028,-196,-34,-162
-451,-842,4050,-119,-22,-154
-436,-714,4111,-46,-18,-151
-387,-638,4184,-4,-11,-156
-339,-627,4284,1,-3,-154
-336,-602,4378,4,9,-142
-359,-593,4393,24,31,-128
-418,-591,4264,35,50,-102
-433,-539,4107,0,43,-55
-398,-575,4090,15,0,-38
-357,-628,4077,33,-37,-21
-324,-618,4141,42,-58,12
-324,-618,4141,42,-58,12
-299,-539,4235,95,-70,28
-270,-428,4274,158,-60,31
-257,-357,4254,220,-35,12
-250,-341,4194,265,-2,-12
-280,-406,4170,301,18,-37
-304,-377,4206,436,35,-68
-342,-242,4203,494,54,-73
-373,-160,4224,446,75,-57
-353,-80,4200,442,93,-58
-349,-48,4132,433,103,-71
-407,-83,4076,388,101,-70
-462,-82,4041,327,88,-53
-465,-81,4015,282,66,-37
-458,-93,4046,256,42,-31
-452,-56,4091,245,24,-24
-436,19,4152,232,21,-14
-419,100,4172,232,27,-21
-415,117,4149,206,37,-34
-413,55,4135,161,38,-39
-375,-3,4127,118,28,-29
-347,-24,4144,81,19,-8
-290,0,4221,68,15,8
-239,31,4234,79,22,14
-235,12,4193,72,48,13
-287,-22,4097,59,72,10
-352,-49,3988,35,81,16
-386,-56,3934,11,74,22
-408,-13,3953,17,53,14
-428,-29,4091,59,37,-15
-434,-36,4119,119,42,-38
-448,1,4018,113,63,-32
-461,26,3954,79,61,-17
-450,26,3984,68,42,-10
-458,26,4043,73,23,-6
-466,60,4067,76,18,-3
-424,104,4092,97,14,-10
-393,106,4083,124,9,-29
-386,75,4117,86,6,-21
-394,58,4140,45,1,4


-671,756,3129,-215,-268,-333
-635,936,3282,-212,-306,-348
-593,1037,3327,-191,-314,-400
-581,930,3166,-180,-316,-475
-572,653,3003,-193,-351,-528
-552,382,2930,-226,-414,-528
-486,229,2939,-255,-485,-491
-429,156,2911,-286,-542,-440
-393,74,2811,-310,-598,-400
-374,-17,2735,-316,-661,-373
-376,-83,2654,-297,-725,-359
-349,-132,2566,-260,-792,-361
-280,-84,2599,-207,-867,-373
-181,-72,2743,-166,-936,-409
-70,-253,2832,-143,-985,-460
51,-518,2989,-109,-1023,-491
169,-665,3224,-41,-1045,-492
348,-658,3421,7,-1041,-452
451,-635,3551,44,-1020,-402
469,-608,3593,76,-993,-344
497,-691,3507,75,-980,-277
492,-867,3384,56,-995,-201
437,-1041,3288,55,-1032,-118
392,-1070,3231,114,-1082,-44
400,-924,3277,241,-1140,-12
498,-652,3461,384,-1183,-17
683,-471,3594,505,-1197,-60
903,-638,3598,532,-1195,-101
1022,-1222,3627,460,-1208,-74
1063,-1717,3736,407,-1225,59
1101,-1812,3894,446,-1223,244
1108,-1423,3972,618,-1192,392
1132,-732,3944,861,-1150,450
1213,-219,3822,1061,-1119,408
1339,-102,3928,1154,-1129,324
1449,-117,4292,1193,-1151,285
1634,236,4107,1057,-1077,320
1634,236,4107,1057,-1077,320
1522,-68,3304,1059,-1221,278
1719,-390,4728,935,-1401,387
1810,-744,5211,913,-1250,519
1745,-831,4720,1063,-1028,657
1653,-432,4151,1181,-917,788
1690,82,4076,1250,-907,840
1781,579,4479,1277,-917,828
1921,1173,4753,1315,-879,777
2060,1654,5129,1392,-832,673
2086,1582,5355,1349,-717,566
2039,1350,5203,1264,-601,543
2013,1413,5109,1146,-531,609
1948,1558,5054,1045,-472,652
1791,1760,4924,1037,-413,642
1660,2086,4755,1066,-374,602
1699,2341,4660,1013,-370,554
1883,2403,4774,906,-389,493
2000,2260,4986,764,-393,451
2046,2087,5102,613,-353,458
2068,1886,5063,538,-280,470
2076,1748,5050,519,-195,493
2046,1881,5022,513,-93,526
2026,2122,4861,522,5,520
2049,2382,4920,492,73,486
2092,2440,4997,449,147,417
2092,2235,4844,398,233,338
2081,2020,4790,327,289,313
2123,1982,4957,254,332,335
2215,2010,5047,207,408,350
2255,1890,4978,156,504,353
2254,1853,5000,115,584,369
2269,1956,5028,97,669,385
2305,2032,4967,76,765,368
2307,1905,4880,55,859,317
2240,1701,4856,31,951,282
2185,1676,4822,46,1051,277
2114,1671,4730,85,1148,268
1975,1605,4687,99,1248,286
1827,2291,4060,0,1347,344
1670,2963,3954,-330,1365,224
1243,1960,3712,-165,1313,-79
1146,1294,3826,37,1213,-126
1236,1460,3845,141,1151,-33
1323,1938,3960,126,1092,43
1394,2478,4213,-44,1081,57
1366,2573,4228,-280,1135,-13
1344,2159,4205,-463,1197,-114
1305,1774,4168,-532,1265,-159
1154,1674,4149,-517,1333,-149
953,1870,3829,-465,1396,-129
724,2193,3478,-468,1404,-132
602,2452,3196,-509,1342,-189
562,2358,3092,-590,1239,-298
510,1968,3105,-663,1131,-403
491,1553,3155,-708,1039,-449
502,1357,3285,-705,959,-439
649,1342,3527,-676,905,-408
859,1254,3827,-648,900,-390
893,1179,4051,-644,948,-351
769,1333,4109,-668,1031,-279
642,1555,3935,-668,1122,-252
487,1586,3634,-623,1189,-303
300,1411,3294,-547,1208,-394
88,1142,3117,-493,1180,-465
-71,1048,3014,-443,1128,-486
-152,1121,2761,-412,1059,-480
-166,1052,2575,-443,942,-485
-136,907,2770,-493,798,-485
-68,892,3152,-489,710,-476
-68,892,3152,-489,710,-476
-26,919,3166,-453,710,-495
-36,764,3031,-449,725,-532
-79,619,2956,-441,709,-558
-96,357,2925,-471,686,-561
-139,-103,2811,-528,658,-521
-271,-272,2736,-596,602,-394
-385,-45,2758,-626,531,-257
-450,277,2783,-589,472,-211
-494,537,2797,-516,427,-252
-464,650,2794,-447,383,-350
-420,483,2812,-428,331,-459
-378,168,2950,-447,273,-514
-370,-58,3169,-484,229,-493
-414,-44,3250,-509,212,-428
-487,85,3133,-531,195,-368
-578,147,3003,-554,144,-339
-653,114,2928,-584,65,-331
-698,21,2932,-616,-16,-334
-702,-118,3003,-606,-92,-354
-667,-244,3186,-547,-156,-373
-597,-228,3418,-449,-194,-381
-503,-48,3694,-379,-204,-376
-375,42,3901,-361,-185,-379
-316,-54,4090,-397,-157,-378
-317,-81,4253,-435,-121,-340
-314,-112,4228,-461,-78,-300
-359,-257,4069,-499,-51,-263
-402,-408,3946,-542,-58,-210
-418,-516,3925,-546,-92,-156
-479,-661,3934,-503,-119,-124
-497,-764,3939,-437,-123,-98
-494,-806,4041,-338,-124,-77
-448,-675,4279,-253,-121,-34
-360,-355,4489,-187,-106,11
-283,-200,4631,-179,-69,25
-320,-318,4668,-182,-20,14
-414,-429,4603,-170,24,27
-467,-421,4482,-150,55,59
-498,-318,4344,-129,69,86
-538,-290,4265,-70,57,76
-600,-393,4186,-25,43,57
-603,-444,4102,1,33,65
-603,-426,4085,61,13,66
-594,-337,4176,159,0,56
-561,-114,4218,263,0,47
-521,79,4218,311,21,24
-522,115,4186,306,40,-9
-546,79,4168,271,49,-29
-550,116,4239,231,45,-27
-524,198,4268,212,44,-27
-500,209,4204,198,50,-45
-510,108,4111,165,46,-62
-511,-3,4097,129,28,-60
-466,-48,4129,179,10,-60
-421,-81,4042,196,3,-58
-469,-229,4050,121,-1,-31
-498,-223,4113,94,-5,14
-464,-41,4100,92,0,63
-416,143,4087,49,10,90
-357,188,4144,14,15,76
-330,123,4181,-11,23,51
-357,26,4186,-39,42,30
-441,-21,4124,-47,63,24
-505,47,4061,-44,71,30
-484,121,4122,-17,57,22
-500,93,4174,5,44,1
-515,38,4145,-30,52,9
-531,25,4082,-47,51,25
-531,25,4082,-47,51,25
-564,6,4092,-27,37,26
-576,-3,4064,14,30,22
-555,-23,4011,53,27,16
-565,17,3974,45,25,25
-540,114,3992,13,19,42
-494,160,4019,14,18,25
-491,108,4034,6,21,1
-540,35,4009,-7,28,-10
-569,22,3951,-3,27,-11
-581,28,3937,-5,13,-2
-602,32,3910,10,0,-5
-609,17,3901,20,-18,-11
-588,-14,3956,45,-43,-22
-549,-30,4034,62,-66,-21
-513,29,4117,63,-78,0
-478,159,4206,56,-79,22
-450,265,4258,51,-73,24
-427,277,4292,36,-56,9
-454,232,4297,22,-32,-10
-487,191,4217,15,-6,-22
-487,159,4139,3,3,-27
-466,101,4138,-4,-4,-31
-472,40,4158,-11,-9,-28


-696,556,3186,-345,-151,-332
-686,539,3187,-396,-214,-292
-699,523,3169,-417,-265,-273
-746,489,3075,-417,-307,-271
-759,467,2981,-410,-355,-280
-739,382,2942,-381,-412,-311
-740,251,2902,-347,-463,-344
-726,175,2878,-291,-514,-368
-668,160,2754,-249,-560,-384
-641,53,2685,-252,-626,-402
-590,-118,2792,-265,-712,-406
-495,-210,2959,-253,-780,-392
-379,-251,3091,-233,-819,-366
-293,-245,3225,-202,-845,-341
-273,-131,3314,-144,-855,-327
-237,54,3271,-76,-856,-337
-139,138,3168,-39,-872,-371
-18,29,3169,-39,-918,-409
58,-188,3241,-69,-980,-415
132,-337,3324,-113,-1035,-376
194,-292,3397,-122,-1080,-323
285,-182,3413,-77,-1110,-316
408,-283,3406,-29,-1131,-363
518,-563,3446,-6,-1148,-390
539,-798,3490,13,-1149,-361
499,-817,3433,32,-1145,-282
602,-559,3553,40,-1175,-190
661,-349,3706,94,-1208,-164
714,-286,3799,100,-1210,-174
834,-395,3933,147,-1210,-209
920,-612,3925,208,-1192,-226
961,-787,3827,210,-1169,-184
987,-762,3799,229,-1157,-113
1038,-560,3815,320,-1143,-81
1120,-374,3862,401,-1133,-84
1212,-314,3939,433,-1137,-97
1310,-427,3904,426,-1140,-101
1324,-676,3769,397,-1161,-69
1421,-758,3861,357,-1201,4
1431,-862,2679,238,-1221,47
1436,-1228,3081,321,-1552,64
1784,-1231,4788,335,-1651,183
1999,-774,5562,536,-1429,266
2091,-185,5411,844,-1120,254
2034,41,4627,978,-888,191
1982,-172,4045,904,-832,165
1942,-591,3828,760,-877,198
1932,-802,3899,655,-939,272
1972,-513,4370,739,-993,344
2122,106,4890,825,-937,386
2234,280,4763,915,-805,335
2276,-9,4475,890,-730,312
2286,-467,4360,768,-705,386
2346,-505,4446,688,-680,539
2371,50,4755,803,-641,635
2306,521,5015,783,-531,661
2306,521,5015,783,-531,661
2349,863,5045,899,-408,619
2388,1086,5016,1003,-320,551
2344,936,4889,974,-253,509
2298,622,4684,928,-216,522
2268,426,4600,861,-206,602
2255,524,4725,832,-181,695
2239,934,4940,907,-114,735
2241,1422,5009,1023,-1,698
2265,1568,4933,1071,105,610
2300,1511,4877,1046,187,547
2353,1437,4759,990,248,526
2319,1249,4765,898,290,539
2232,1227,4803,809,337,595
2172,1330,4757,755,405,647
2125,1531,4787,742,468,660
2118,2021,4893,745,534,643
2129,2304,5013,727,614,556
2110,2418,4984,660,703,445
2037,2427,4918,570,774,341
2011,2254,4769,468,823,260
1936,1943,4605,339,846,224
1912,1742,4546,218,837,248
1940,1657,4633,125,833,297
1953,1684,4666,61,859,343
1923,1648,4728,57,905,361
1821,1539,4976,117,988,382
1918,2418,4693,3,1139,427
1869,2858,4719,-196,1294,221
1527,1814,4232,138,1360,-112
1454,1048,4088,328,1345,-157
1462,992,3915,301,1341,-20
1393,1326,3941,223,1320,114
1330,1700,3788,192,1303,161
1282,1723,3482,143,1246,129
1221,1618,3639,77,1137,97
1239,1791,3945,-39,1114,79
1203,1880,3910,-198,1179,23
1073,1854,3851,-292,1230,-60
955,1905,3780,-315,1256,-133
920,1980,3760,-360,1264,-201
874,1865,3704,-446,1258,-265
793,1613,3614,-580,1232,-285
698,1502,3603,-680,1183,-251
679,1545,3628,-737,1132,-206
707,1503,3630,-792,1092,-186
631,1426,3568,-821,1058,-177
528,1366,3453,-819,1020,-172
476,1251,3404,-812,978,-183
429,1183,3584,-780,932,-198
435,1259,3838,-668,919,-214
516,1435,3886,-557,955,-238
526,1465,3801,-534,996,-280
486,1330,3659,-557,1013,-316
464,1136,3572,-593,1004,-324
368,969,3465,-573,985,-313
171,885,3316,-542,961,-289
7,946,3195,-499,927,-272
-94,1077,3101,-443,880,-283
-99,1101,2967,-412,824,-327
-118,885,2861,-442,745,-379
-135,587,2924,-495,652,-388
-142,505,3122,-505,582,-362
-127,555,3185,-470,562,-355
-152,530,3148,-447,561,-375
-185,488,3144,-431,546,-393
-188,372,3132,-426,524,-408
-219,236,3126,-437,496,-404
-282,163,3122,-443,466,-375
-282,163,3122,-443,466,-375
-350,173,3065,-444,433,-345
-414,187,3026,-471,394,-321
-428,222,3122,-476,346,-318
-409,127,3218,-484,320,-344
-422,-16,3232,-475,302,-370
-424,-79,3342,-452,275,-372
-419,0,3499,-416,249,-369
-420,43,3555,-401,238,-367
-460,-58,3504,-414,229,-365
-511,-170,3533,-415,203,-356
-508,-224,3646,-375,177,-344
-492,-195,3757,-348,166,-322
-509,-97,3827,-375,171,-294
-569,-47,3784,-388,172,-281
-578,-130,3670,-382,151,-288
-586,-357,3643,-385,107,-300
-596,-564,3695,-382,64,-287
-578,-698,3741,-374,40,-249
-603,-769,3862,-342,29,-215
-607,-595,4143,-237,42,-193
-541,-351,4289,-63,90,-212
-444,-210,4309,105,139,-260
-443,-289,4223,200,173,-303
-535,-409,4084,163,189,-274
-539,-490,3958,54,185,-197
-921,-665,3228,-206,173,-106
-1025,-1234,3191,-932,123,128
-603,-713,3942,-707,-37,240
-541,-286,4173,-397,-62,173
-590,-325,4177,-263,-13,83
-670,-413,4036,-63,2,2
-765,-600,4066,85,6,-51
-889,-482,3422,311,6,-100
-582,-452,4001,29,-58,5
-449,-254,4422,121,-83,0
-497,-128,4423,140,-21,-7
-545,63,4307,104,16,15
-523,241,4271,49,18,23
-479,227,4258,18,7,-9
-503,29,4185,12,-3,-57
-587,-160,4063,12,-24,-74
-675,-249,3856,12,-56,-60
-694,-236,3725,24,-112,-45
-663,-151,3755,37,-189,-38
-593,-79,3948,37,-254,-48
-543,-113,4039,32,-273,-71
-501,-144,4070,-11,-273,-68
-474,-91,4083,-40,-273,-48
-413,-49,4144,-37,-272,-43
-371,-224,4266,-29,-245,-66
-437,-394,4205,-24,-180,-60
-472,-386,4130,-44,-131,10
-474,-238,4093,-5,-111,61
-513,-112,4079,15,-92,75
-549,-9,4088,46,-78,64
-564,67,4057,83,-72,33
-547,54,4040,111,-77,-8
-526,43,4101,133,-87,-41
-509,23,4197,152,-85,-60
-490,47,4246,182,-73,-72
-465,113,4305,200,-56,-76
-440,123,4291,214,-34,-88
-443,84,4240,203,-19,-92
-441,61,4214,158,-11,-77
-395,51,4223,97,-13,-53
-415,-34,4237,80,-18,-48
-458,-124,4151,46,-3,-26
-475,-153,4047,18,5,2
-477,-115,4026,21,0,18
-472,-31,4066,42,-10,14
-472,-31,4066,42,-10,14
-431,30,4127,57,-14,0
-388,23,4169,71,-14,-23
-377,-51,4173,54,-10,-31


-751,965,2874,-288,-390,-343
-768,902,2852,-348,-469,-400
-745,842,2761,-419,-554,-438
-668,676,2811,-493,-658,-475
-668,676,2811,-493,-658,-475
-564,526,3033,-511,-750,-505
-479,372,3185,-516,-796,-521
-442,223,3289,-499,-809,-530
-451,263,3338,-460,-807,-520
-422,432,3228,-403,-811,-523
-345,530,3019,-376,-852,-559
-206,431,2980,-390,-939,-619
-18,177,3159,-400,-1037,-681
160,-134,3347,-417,-1097,-706
286,-353,3478,-428,-1117,-681
373,-489,3527,-431,-1114,-628
441,-579,3557,-417,-1106,-574
523,-569,3698,-367,-1096,-525
578,-503,3767,-317,-1064,-488
608,-509,3651,-306,-1022,-463
594,-579,3462,-323,-1005,-435
493,-685,3312,-360,-1019,-404
453,-799,3150,-348,-1050,-399
460,-1158,2899,-289,-1097,-426
511,-1588,2825,-231,-1171,-424
640,-1669,3131,-108,-1261,-377
850,-1300,3630,32,-1299,-312
1076,-770,4023,129,-1273,-279
1201,-578,4062,154,-1208,-295
1222,-936,3897,87,-1170,-306
1215,-1439,3847,19,-1192,-239
1248,-1677,3936,5,-1224,-102
1312,-1610,4019,58,-1229,39
1337,-1333,4053,162,-1214,129
1391,-992,4140,246,-1190,163
1473,-700,4314,343,-1158,121
1602,-489,4516,423,-1126,49
1710,-794,3931,373,-1037,-26
1770,-1248,3244,375,-1229,-24
2033,-1572,4687,165,-1407,112
2205,-1551,5337,-19,-1195,288
2018,-1290,4252,84,-983,351
1916,-1102,4319,348,-1006,350
1915,-1109,4496,436,-943,372
1867,-1063,4355,523,-851,405
1901,-908,4340,603,-793,437
1996,-709,4565,720,-762,447
2085,-502,4815,830,-717,454
2178,-313,4977,868,-656,480
2291,-286,4984,847,-587,514
2332,-525,4957,823,-526,548
2361,-663,5059,809,-468,636
2394,-503,5190,835,-381,751
2375,-116,5249,896,-257,830
2380,413,5322,950,-133,858
2363,730,5210,1002,-8,802
2310,557,4977,1003,86,705
2223,227,4866,965,134,670
2193,126,4882,947,163,723
2138,282,4942,960,200,796
2110,761,5115,977,251,854
2134,1209,5201,996,330,836
2152,1277,4989,989,416,753
2138,1074,4804,894,460,691
2093,899,4742,781,477,689
2057,869,4832,703,493,715
2048,841,5090,718,546,753
2027,1001,5025,675,701,808
2049,2021,4684,370,851,829
1768,1813,4197,296,916,588
1583,844,3968,496,841,416
1576,687,3762,483,731,466
1604,938,4315,490,624,533
1659,1180,4747,512,684,544
1520,1276,4525,605,813,488
1520,1276,4525,605,813,488
1410,1330,4183,676,884,426
1392,1402,4002,654,900,371
1326,1356,3960,588,896,311
1204,1204,3698,550,848,280
1261,1488,3887,398,760,317
1292,1790,4234,171,743,306
1256,1920,4304,2,794,233
1206,1822,4150,-83,842,126
1167,1558,3983,-155,855,40
1220,1273,3948,-258,836,9
1240,1049,4074,-363,813,25
1230,1108,4256,-422,814,66
1226,1302,4363,-426,848,61
1162,1392,4406,-400,904,9
1101,1325,4406,-376,962,-46
1048,1326,4287,-359,1010,-75
961,1327,4159,-340,1022,-96
883,1309,4073,-351,1007,-111
851,1294,4026,-376,974,-122
818,1126,3963,-418,946,-140
774,924,3947,-469,918,-128
741,845,3949,-482,896,-95
702,833,3920,-444,891,-81
652,820,3864,-366,895,-96
578,882,3809,-291,893,-122
549,870,3827,-231,889,-162
525,750,3725,-153,894,-221
456,580,3571,-132,884,-247
376,523,3530,-135,844,-236
336,612,3656,-124,799,-216
323,706,3752,-78,785,-227
292,938,3780,-55,796,-251
270,1037,3721,-46,798,-305
263,826,3650,-67,789,-369
234,562,3612,-98,775,-398
157,362,3493,-123,767,-389
42,313,3375,-157,749,-343
-50,481,3253,-170,713,-302
-102,580,3048,-162,664,-324
-142,464,2951,-193,590,-370
-163,360,3009,-212,508,-401
-136,327,3176,-193,437,-419
-53,358,3390,-158,391,-426
-17,328,3485,-178,378,-421
-58,244,3475,-224,379,-403
-106,229,3430,-262,372,-369
-158,298,3420,-278,356,-348
-196,322,3345,-289,343,-353
-197,201,3262,-320,313,-364
-221,23,3209,-354,270,-362
-267,-105,3182,-383,229,-344
-291,-200,3146,-390,189,-320
-324,-177,3219,-383,145,-292
-356,-31,3266,-339,116,-285
-289,63,3272,-316,86,-303
-233,-99,3404,-341,48,-336
-243,-333,3606,-358,26,-342
-299,-381,3656,-330,34,-314
-339,-412,3502,-286,36,-289
-331,-525,3399,-269,3,-268
-301,-555,3508,-273,-50,-230
-249,-460,3745,-244,-97,-198
-245,-379,3939,-156,-105,-209
-233,-313,4003,-51,-88,-237
-218,-361,4019,19,-71,-266
-201,-490,4051,67,-64,-282
-178,-550,4181,103,-68,-260
-152,-508,4311,120,-64,-210
-177,-451,4388,103,-45,-156
-177,-451,4388,103,-45,-156
-248,-428,4421,87,-17,-115
-327,-396,4358,101,9,-87
-395,-365,4231,79,32,-56
-423,-342,4173,51,33,-32
-405,-326,4202,54,17,-19
-390,-297,4259,66,7,-8
-419,-210,4295,89,10,-3
-422,-80,4330,144,18,-19
-360,22,4322,197,32,-46
-270,76,4304,205,44,-68
-227,25,4314,127,55,-68
-223,-69,4327,45,70,-57
-266,-117,4252,9,96,-49
-294,-144,4152,-12,117,-43
-275,-133,4076,-1,118,-42
-233,-132,4108,-6,109,-37
-237,-107,4261,-17,101,-26
-267,-10,4295,-26,122,-3
-263,33,4248,-64,157,9
-253,-24,4269,-94,186,0
-260,-76,4184,-44,220,-24
-320,-115,4085,-42,247,-27
-349,-107,4073,-55,254,-13
-381,-87,4084,-37,255,-7
-417,-82,4084,-4,256,-13
-423,-57,4218,-3,278,-20
-442,-18,4227,51,321,-45
-474,54,4075,147,347,-80
-469,247,4063,209,354,-115
-450,434,3942,272,353,-204
-572,218,4006,173,338,-247
-592,99,3949,160,317,-259
-600,28,3912,128,293,-247
-620,-42,3918,88,259,-215
-616,-75,3946,80,214,-172
-634,-106,3951,52,174,-112
-722,-154,3991,28,144,-48
-735,-127,3901,44,118,20
-743,-91,3798,19,96,82
-744,-47,3786,5,51,120
-701,5,3810,14,-2,133
-702,40,3844,19,-51,132
-678,86,3895,2,-93,130
-627,138,3954,4,-131,117
-570,199,4026,36,-156,88
-529,235,4122,77,-175,49
-503,234,4182,114,-180,11
-478,187,4224,114,-169,-6
-473,133,4232,128,-153,-18
-465,74,4202,124,-141,-8
-459,23,4196,126,-130,8
-441,32,4169,139,-124,32
-427,61,4196,114,-122,60
-416,131,4218,107,-118,84


-534,786,3267,-218,-409,-297
-506,693,3252,-253,-454,-324
-450,594,3271,-268,-512,-353
-378,492,3263,-281,-562,-367
-299,398,3238,-296,-603,-372
-213,256,3236,-315,-646,-379
-166,74,3286,-307,-687,-395
-166,74,3286,-307,-687,-395
-165,-94,3310,-281,-719,-393
-182,-139,3313,-257,-741,-357
-164,-34,3297,-229,-761,-306
-78,58,3203,-193,-780,-294
-20,14,3071,-195,-806,-317
16,-112,3025,-210,-854,-344
77,-267,3071,-181,-922,-372
133,-390,3134,-117,-984,-390
185,-469,3205,-80,-1033,-380
262,-497,3267,-83,-1073,-337
316,-534,3312,-113,-1109,-276
296,-567,3342,-154,-1140,-215
327,-592,3357,-136,-1171,-179
406,-581,3339,-44,-1198,-173
504,-542,3376,57,-1232,-178
714,-509,3460,111,-1275,-164
911,-534,3615,98,-1311,-148
1086,-597,3881,54,-1333,-117
1281,-655,4214,41,-1328,-81
1354,-690,4489,88,-1289,-45
1330,-631,4703,154,-1210,9
1367,-196,4632,130,-1036,66
1177,-363,3428,291,-1027,0
1256,-573,3663,331,-1250,37
1411,-494,4105,70,-1281,135
1322,-618,3660,-25,-1294,132
1344,-640,4054,62,-1420,146
1472,-391,4695,106,-1401,173
1694,0,4967,181,-1257,166
1863,-58,4905,200,-1085,108
1916,-447,4538,136,-939,99
1975,-693,4127,39,-891,178
1843,-1112,3875,13,-940,256
1737,-1236,4103,56,-992,364
1686,-963,4464,201,-952,452
1738,-363,4583,477,-859,469
1854,104,4630,662,-765,418
1911,95,4694,694,-676,343
1952,-49,4665,695,-598,322
1904,-225,4415,737,-549,338
1796,-304,4243,748,-535,394
1819,-92,4367,783,-548,454
1935,201,4600,819,-543,489
2061,403,4710,854,-495,486
2175,370,4709,880,-434,459
2159,246,4735,858,-372,463
2111,382,4831,828,-314,522
2102,687,4920,823,-245,564
2079,893,4891,844,-165,544
2034,972,4780,837,-91,508
2004,907,4658,815,-43,472
1993,809,4558,775,-16,468
1969,794,4508,723,-5,492
1971,909,4561,682,2,519
1998,1010,4598,676,32,518
2020,1122,4662,659,72,507
2126,1235,4739,639,120,489
2268,1186,4706,587,185,461
2274,1022,4749,479,237,457
2234,1019,4796,393,288,497
2204,1098,4708,355,345,526
2116,1176,4593,329,399,522
2031,1273,4558,329,443,491
1992,1359,4468,346,486,436
1999,1333,4451,344,521,369
1971,1216,4511,328,550,325
1964,1214,4524,290,590,324
1927,1289,4480,250,634,331
1927,1289,4480,250,634,331
1911,1311,4444,223,671,317
1864,1299,4360,206,713,293
1774,1325,4284,169,742,274
1702,1447,4241,144,767,252
1650,1547,4204,120,786,210
1604,1432,4152,85,802,145
1547,1155,4112,58,813,95
1472,807,4291,116,807,96
1475,891,4443,136,859,189
1720,2158,4685,-110,968,265
1518,2109,4590,-129,1122,17
1300,1245,4134,128,1141,-161
1331,986,4181,188,1078,-99
1375,1328,3983,92,1041,-1
1272,1459,3807,32,952,22
1220,1404,3819,-27,838,47
1301,1589,4070,-193,777,65
1341,1618,4202,-366,810,5
1337,1474,4216,-509,868,-69
1275,1303,4170,-613,932,-114
1172,1122,3985,-651,990,-146
1066,989,3733,-663,1014,-158
992,855,3607,-691,999,-153
977,845,3651,-695,968,-132
990,1026,3786,-699,946,-122
996,1098,3833,-700,953,-144
1009,1073,3729,-714,962,-176
994,915,3691,-728,948,-202
940,720,3689,-722,930,-215
871,627,3693,-705,918,-201
812,630,3726,-653,915,-182
771,678,3693,-586,920,-181
672,691,3639,-575,929,-185
555,732,3588,-577,933,-188
484,776,3451,-550,926,-204
413,694,3329,-550,897,-234
327,535,3310,-556,847,-249
297,507,3304,-543,796,-236
336,485,3286,-543,751,-229
340,295,3337,-545,706,-239
310,187,3497,-556,672,-213
289,235,3593,-529,673,-181
212,271,3495,-473,698,-185
83,283,3462,-436,716,-203
-19,326,3300,-377,720,-225
-65,376,3231,-351,686,-246
-99,248,3123,-371,646,-278
-176,7,3079,-411,579,-285
-244,-87,3153,-443,518,-257
-316,39,3164,-432,468,-230
-302,330,3207,-396,415,-236
-230,443,3285,-403,375,-293
-210,267,3354,-455,348,-362
-243,-25,3259,-506,340,-396
-318,-303,3103,-559,319,-383
-361,-485,3047,-571,263,-345
-404,-510,3081,-559,203,-300
-409,-413,3099,-509,156,-276
-388,-390,3099,-460,117,-289
-435,-507,3136,-436,81,-316
-444,-541,3204,-410,43,-317
-409,-466,3316,-390,0,-303
-360,-390,3495,-382,-39,-299
-335,-389,3606,-379,-58,-308
-332,-307,3671,-367,-69,-318
-318,-271,3780,-340,-81,-341
-311,-244,3707,-338,-80,-360
-306,-315,3629,-355,-107,-379
-297,-460,3597,-373,-161,-384
-264,-702,3580,-410,-217,-373
-264,-702,3580,-410,-217,-373
-226,-964,3673,-428,-273,-339
-203,-1028,3837,-397,-311,-287
-176,-906,3984,-356,-318,-233
-158,-756,4105,-325,-300,-205
-110,-669,4076,-296,-270,-206
-50,-804,4043,-286,-259,-230
-31,-1016,4168,-286,-265,-230
-2,-1120,4345,-265,-261,-197
15,-1148,4366,-218,-236,-151
12,-1197,4289,-163,-213,-115
-5,-1292,4338,-94,-205,-86
-6,-1243,4378,86,-199,-81
-34,-1169,4520,163,-183,-60
-12,-912,4617,253,-139,-42
44,-697,4597,341,-83,-58
87,-664,4539,368,-41,-90
98,-720,4521,347,-22,-101
105,-775,4550,302,-14,-80
85,-796,4478,275,0,-47
60,-798,4326,238,13,-2
38,-821,4237,201,9,32
1,-831,4201,194,-1,55
-43,-842,4247,170,-13,84
-54,-806,4281,179,-7,108
-75,-680,4233,201,7,129
-119,-502,4261,184,17,146
-114,-324,4317,170,31,142
-77,-220,4337,171,55,114
-69,-236,4298,157,83,78
-116,-305,4211,115,106,62
-170,-312,4082,67,116,68
-221,-345,4044,49,100,66
-253,-392,3976,21,86,65
-266,-430,3928,-7,74,69
-293,-443,3901,1,56,62
-320,-416,3884,-2,42,63
-295,-370,3911,-6,20,66
-228,-310,3996,-4,0,62
-208,-277,4045,-4,-1,50
-203,-268,4040,-13,1,36
-171,-261,4034,-7,0,23
-105,-291,4050,-10,-6,14
-73,-356,4120,-21,-16,10
-101,-416,4181,-15,-13,13
-137,-337,4146,11,3,31
-116,-213,4094,48,12,35
-93,-159,4109,57,0,27
-65,-165,4180,21,-5,23
-25,-189,4264,0,0,17
15,-175,4230,3,15,12
-13,-210,4214,-8,32,3
-18,-267,4227,-10,45,-2


-635,472,3178,-148,-271,-436
-584,517,3203,-163,-344,-435
-524,572,3255,-195,-408,-442
-488,522,3305,-235,-455,-469
-489,372,3278,-253,-493,-509
-485,177,3212,-267,-533,-532
-441,48,3123,-276,-582,-533
-371,-51,3071,-294,-641,-522
-301,-140,3062,-314,-703,-511
-233,-205,3083,-312,-759,-507
-142,-276,3103,-275,-804,-521
-81,-418,3121,-260,-840,-535
-18,-551,3141,-245,-874,-532
32,-561,3177,-214,-910,-509
63,-451,3237,-170,-948,-492
144,-317,3269,-119,-979,-501
211,-271,3270,-87,-1004,-535
252,-286,3314,-85,-1031,-568
252,-286,3314,-85,-1031,-568
585,-460,3448,-103,-1075,-586
585,-460,3448,-103,-1075,-586
679,-669,3584,-162,-1087,-553
748,-825,3747,-191,-1087,-485
732,-958,3700,-192,-1055,-416
675,-1127,3487,-184,-1030,-348
626,-1297,3367,-134,-1054,-280
678,-1092,3500,-33,-1109,-208
887,-714,3752,119,-1151,-197
1107,-447,3971,231,-1144,-250
1218,-503,4109,242,-1099,-323
1292,-908,4046,191,-1042,-364
1303,-1494,3910,126,-1004,-325
1248,-1587,3551,65,-964,-194
1167,-1443,3105,109,-1052,-105
1167,-1412,3231,362,-1233,-36
1398,-887,3645,436,-1371,51
1634,-501,4117,385,-1384,49
1793,-406,4307,314,-1307,-7
1776,-729,3926,268,-1247,-84
1829,-1186,4000,264,-1302,-87
1914,-1368,4487,198,-1295,4
1920,-1229,4662,188,-1185,115
1943,-983,4716,274,-1051,182
1929,-841,4565,435,-930,192
1843,-944,4262,519,-828,207
1705,-980,3977,604,-779,246
1647,-669,3938,719,-784,296
1707,-207,4112,829,-811,308
1829,77,4310,900,-823,254
1948,-82,4466,932,-816,201
2145,-402,4557,885,-788,230
2242,-696,4553,799,-740,330
2187,-734,4490,740,-677,471
2125,-392,4526,773,-603,575
2113,147,4579,893,-521,583
2202,570,4652,998,-446,507
2305,662,4713,1022,-378,395
2380,417,4721,956,-323,326
2429,6,4673,867,-280,343
2453,-243,4749,795,-236,443
2319,-353,4363,843,-184,567
2412,342,4539,881,-207,693
2496,951,5040,873,-145,679
2462,948,5020,893,-8,569
2439,648,4818,904,95,496
2405,350,4735,886,157,501
2374,235,4701,896,211,563
2338,363,4649,941,271,636
2305,716,4635,995,333,678
2273,1016,4615,1040,399,662
2268,1156,4581,1046,447,611
2263,1137,4622,1011,473,565
2243,1092,4741,973,503,540
2186,1118,4776,964,550,535
2163,1299,4850,965,605,544
2191,1490,4894,959,673,532
2210,1512,4850,908,754,503
2158,1432,4727,850,824,482
2105,1356,4651,791,867,488
2099,1452,4678,738,892,518
2020,1645,4722,684,936,537
1984,1870,4574,603,1000,523
1893,1922,4389,529,1035,455
1788,1828,4423,505,1053,371
1700,1681,4373,503,1105,297
1582,1490,4191,501,1163,245
1456,1423,4001,470,1194,236
1418,1612,3840,425,1186,247
1388,1725,3673,362,1151,227
1240,1506,3529,344,1074,185
1240,1506,3529,344,1074,185
1253,1624,3711,226,1003,206
1280,1817,3803,7,1015,192
1208,1864,3868,-198,1046,138
1181,1902,3944,-304,1073,75
1178,1858,3880,-375,1109,4
1109,1673,3860,-480,1128,-48
1031,1500,3825,-546,1133,-64
945,1443,3655,-585,1133,-52
828,1324,3585,-606,1110,-47
788,1385,3551,-587,1068,-30
736,1577,3548,-596,1036,-48
619,1538,3536,-603,1011,-120
579,1394,3412,-579,983,-190
573,1151,3351,-580,930,-225
545,903,3484,-572,860,-219
566,928,3703,-500,809,-166
601,1127,3885,-427,806,-124
580,1199,3703,-389,829,-118
552,1283,3572,-359,813,-129
504,1194,3573,-350,784,-161
458,988,3617,-309,761,-192
467,926,3629,-237,756,-192
510,1010,3683,-188,750,-183
527,1068,3718,-176,754,-190
471,1015,3702,-180,768,-209
395,955,3610,-180,785,-227
299,962,3482,-177,794,-243
246,987,3438,-142,778,-276
193,970,3450,-124,751,-307
136,955,3409,-137,724,-323
128,935,3354,-171,691,-337
125,851,3365,-218,651,-352
92,725,3430,-268,616,-357
58,604,3472,-308,600,-351
17,531,3444,-333,592,-336
-21,531,3445,-337,580,-319
-38,593,3469,-317,568,-314
-80,604,3459,-315,560,-327
-115,530,3442,-359,543,-333
-161,452,3439,-409,518,-323
-247,425,3407,-437,500,-315
-334,410,3305,-427,478,-318
-410,523,3295,-414,440,-323
-442,756,3317,-374,400,-359
-424,768,3239,-379,364,-423
-385,503,3240,-445,308,-472
-368,169,3354,-517,249,-469
-387,1,3492,-573,213,-418
-423,20,3550,-575,199,-368
-461,98,3525,-536,194,-345
-489,176,3500,-497,184,-357
-480,179,3551,-487,162,-377
-487,15,3588,-481,144,-399
-539,-74,3553,-452,129,-394
-568,58,3514,-382,106,-388
-587,149,3470,-347,75,-409
-561,62,3473,-365,30,-429
-520,-101,3542,-395,-18,-431
-488,-274,3604,-418,-56,-412
-468,-325,3671,-420,-88,-374
-447,-275,3762,-413,-114,-338
-430,-238,3810,-395,-125,-327
-446,-290,3744,-366,-130,-335
-456,-434,3679,-344,-152,-343
-486,-532,3687,-324,-195,-333
-481,-508,3774,-296,-235,-312
-469,-383,3904,-237,-264,-306
-447,-265,4057,-162,-279,-327
-447,-265,4057,-162,-279,-327
-383,-241,4183,-104,-284,-357
-342,-357,4239,-81,-277,-372
-314,-493,4208,-73,-268,-364
-305,-609,4183,-65,-263,-333
-333,-696,4167,-69,-259,-291
-327,-728,4137,-70,-248,-245
-299,-718,4156,-18,-241,-214
-250,-618,4069,114,-237,-216
-236,-640,4011,104,-234,-210
-185,-703,4054,70,-234,-192
-105,-677,4174,81,-240,-166
-81,-564,4342,78,-232,-129
-92,-343,4524,99,-199,-106
-61,-137,4571,138,-141,-115
-59,-114,4477,148,-72,-148
-149,-216,4355,116,-20,-172
-235,-286,4269,64,1,-158
-269,-340,4220,25,2,-127
-265,-387,4213,-5,-5,-94
-275,-411,4223,-38,-15,-58
-306,-422,4209,-54,-19,-32
-341,-418,4196,-45,-19,-21
-409,-377,4191,-5,-17,-20
-435,-274,4176,31,-12,-19
-407,-154,4162,55,-12,-26
-327,-96,4169,45,-18,-31
-244,-119,4231,5,-21,-32
-210,-177,4317,-12,-20,-36
-212,-197,4387,-11,-6,-31
-237,-141,4418,-3,15,-13
-235,-37,4408,2,42,0
-175,60,4381,22,67,-1
-172,53,4378,25,89,-26
-234,-12,4306,17,117,-51
-289,-118,4206,-4,140,-60
-317,-184,4151,-3,146,-59
-322,-214,4083,12,136,-48
-302,-224,4077,0,119,-22
-294,-232,4134,-23,102,9
-322,-205,4111,-21,97,29


-353,74,2894,33,-435,-386
-349,83,2942,26,-500,-402
-320,86,3059,32,-566,-420
-252,65,3137,37,-617,-434
-189,24,3156,25,-654,-440
-126,-91,3174,13,-698,-447
-94,-250,3206,-9,-751,-436
-56,-347,3205,-19,-801,-411
-6,-390,3208,-14,-848,-389
76,-377,3338,13,-903,-380
167,-308,3468,71,-937,-380
245,-191,3415,102,-950,-382
311,-171,3468,75,-981,-387
350,-272,3646,31,-1018,-394
335,-407,3660,-4,-1025,-384
332,-545,3529,-23,-1032,-367
332,-545,3529,-23,-1032,-367
402,-711,3547,5,-1073,-351
557,-755,3695,84,-1120,-326
759,-719,3873,141,-1137,-297
959,-658,4052,187,-1134,-275
1111,-622,4214,207,-1110,-256
1178,-662,4345,182,-1071,-226
1196,-835,4313,156,-1016,-181
1242,-977,4244,120,-957,-120
1057,-1408,3223,127,-921,-61
946,-1528,2952,160,-1101,41
1018,-1281,3613,164,-1232,137
1032,-837,4099,279,-1190,149
1086,-392,4081,516,-1089,84
1220,-136,3608,612,-1037,-15
1321,-343,3356,625,-1139,-108
1554,-494,3970,461,-1257,-72
1719,-680,4351,294,-1221,3
1703,-801,4384,270,-1113,85
1577,-623,4297,355,-1005,163
1470,-280,4092,476,-911,203
1452,-84,3862,580,-876,191
1516,-99,3765,581,-902,181
1577,-207,3886,503,-959,193
1582,-405,4162,529,-990,210
1643,-368,4313,670,-973,255
1760,-47,4446,780,-918,296
1852,316,4536,848,-849,292
1893,470,4606,861,-785,259
1967,338,4603,832,-726,225
2066,54,4629,777,-685,232
2142,-181,4760,717,-654,292
2125,-384,4836,692,-597,395
2139,-100,4840,735,-572,532
2245,511,5247,693,-517,618
2310,836,5325,735,-400,568
2353,904,5229,797,-302,471
2400,847,5283,814,-238,391
2447,763,5435,788,-160,365
2472,742,5454,765,-62,376
2441,714,5256,753,27,394
2409,541,5034,697,91,424
2365,381,4945,646,131,479
2338,456,4982,628,177,556
2358,810,4959,649,240,606
2412,1096,4979,660,307,587
2457,1171,5088,656,384,525
2445,1225,5084,643,478,477
2401,1291,4922,612,568,442
2338,1247,4832,565,631,405
2251,1130,4775,519,685,388
2172,1038,4749,486,739,400
2109,1096,4724,478,790,425
1992,1243,4659,474,845,441
1869,1401,4558,479,896,422
1757,1396,4334,477,936,366
1680,1306,4262,435,941,320
1672,1311,4320,390,937,300
1691,1403,4363,372,951,276
1681,1548,4478,352,969,240
1662,1581,4588,331,1026,194
1572,1483,4319,349,1094,155
1478,1398,4031,327,1114,147
1420,1304,3928,259,1092,154
1304,1258,3815,214,1056,177
1286,1430,3886,155,1015,224
1273,1698,4079,25,1024,226
1181,2068,3853,-126,1082,147
1044,2113,3638,-217,1086,-1
953,1861,3764,-236,1038,-139
953,1861,3764,-236,1038,-139
988,1694,3941,-269,1014,-198
1014,1581,3908,-336,1021,-216
973,1488,3786,-439,1016,-202
898,1457,3831,-533,987,-180
827,1421,3865,-547,975,-180
797,1487,3825,-542,984,-190
728,1572,3692,-552,989,-227
672,1458,3502,-575,967,-280
632,1231,3432,-609,913,-314
648,1052,3614,-635,855,-314
631,900,3708,-579,838,-316
576,747,3554,-495,849,-309
512,626,3447,-432,834,-285
499,632,3423,-367,796,-246
532,722,3515,-318,760,-215
610,781,3706,-277,744,-212
665,739,3755,-249,761,-226
631,651,3712,-266,798,-223
570,642,3676,-258,819,-206
469,734,3613,-217,835,-192
398,884,3458,-157,829,-199
406,812,3413,-125,792,-243
427,585,3511,-113,755,-283
385,409,3533,-101,740,-282
298,381,3433,-105,745,-250
222,428,3350,-104,729,-223
162,455,3341,-89,699,-218
95,470,3394,-73,673,-223
51,549,3417,-20,660,-242
-18,577,3376,26,653,-283
-81,614,3289,29,632,-302
-101,614,3219,-44,593,-297
-119,487,3247,-155,543,-286
-197,361,3331,-246,502,-263
-223,355,3351,-288,485,-233
-333,401,3256,-273,474,-232
-464,468,3047,-246,449,-250
-526,444,2834,-239,388,-284
-564,286,2829,-261,286,-318
-563,114,2998,-316,190,-316
-528,67,3179,-344,122,-291
-452,133,3316,-349,79,-270
-396,223,3494,-348,50,-260
-365,381,3694,-376,34,-241
-305,486,3783,-411,38,-238
-305,397,3726,-424,41,-264
-377,269,3710,-390,13,-286
-410,205,3714,-337,-19,-292
-381,106,3753,-304,-47,-298
-342,-15,3809,-266,-68,-297
-275,-128,3902,-239,-83,-280
-247,-194,4070,-197,-89,-253
-265,-168,4169,-126,-74,-229
-248,-172,4195,-70,-47,-215
-197,-232,4216,-32,-28,-203
-186,-313,4293,-28,-12,-170
-206,-326,4329,-32,12,-117
-242,-297,4303,-52,41,-61
-310,-241,4264,-81,65,-11
-390,-192,4230,-95,83,22
-467,-130,4206,-82,96,42
-535,-7,4193,-70,100,55
-546,107,4222,-68,97,56
-510,114,4234,-50,96,35
-489,32,4228,-45,96,10
-503,-73,4256,-33,96,1
-484,-111,4239,155,110,-32
-521,-158,4028,261,123,-69
-521,-158,4028,261,123,-69
-598,-311,4020,239,122,-65
-592,-168,3956,305,117,-30
-510,67,3887,319,104,10
-409,206,3869,285,81,24
-342,205,3890,241,55,18
-325,158,3923,187,32,25
-303,95,3982,129,15,43
-281,62,4067,105,3,63
-350,114,4226,67,-3,100
-397,272,4429,48,3,135
-343,453,4395,45,52,145
-283,492,4257,14,122,117
-298,319,4216,4,174,52
-298,176,4197,49,201,12
-286,172,4201,59,236,15
-288,250,4211,93,278,18
-252,440,4119,168,309,8
-286,480,4130,104,326,41
-263,564,4099,34,330,94
-320,618,4143,-126,335,167
-399,612,4154,-270,345,226
-471,604,4070,-337,363,247
-543,562,3976,-374,374,236
-616,476,3903,-371,369,193
-688,359,3836,-338,359,131
-760,201,3833,-279,338,58
-802,104,3851,-177,311,-4
-825,83,3802,-86,293,-33
-831,67,3771,-53,272,-36
-781,98,3823,-40,237,-20
-729,146,3909,-55,195,18
-733,162,3987,-122,171,73
-765,178,4003,-197,168,127
-760,174,3970,-267,170,164
-826,36,4025,-289,167,159
-897,-56,3927,-223,173,117
-928,-123,3887,-188,176,90
-924,-148,3886,-114,156,62
-938,-155,3904,-31,124,39
-929,-143,3983,47,90,30
-886,-102,4045,94,64,39
-824,-28,4188,48,58,74
-768,73,4338,33,72,105
-765,135,4383,24,109,127


-127,788,4485,-158,416,-253
-143,705,4354,-177,430,-272
-157,672,4320,-169,426,-281
-197,716,4184,-157,425,-284
-213,794,4048,-188,424,-286
-236,855,3923,-204,407,-313
-252,803,3767,-209,389,-365
-274,621,3643,-217,367,-421
-318,413,3537,-196,346,-455
-353,321,3331,-217,332,-443
-389,261,3223,-261,300,-419
-504,269,3069,-288,267,-395
-605,311,2939,-319,229,-374
-659,287,2811,-297,180,-389
-723,285,2785,-263,128,-414
-762,341,2774,-217,87,-444
-772,415,2733,-205,47,-476
-781,405,2754,-214,-2,-515
-825,275,2689,-214,-54,-555
-845,84,2519,-227,-110,-570
-844,-101,2412,-250,-193,-560
-830,-175,2423,-251,-287,-534
-785,-128,2454,-225,-369,-511
-730,-51,2481,-213,-438,-505
-685,-115,2524,-213,-511,-527
-637,-292,2602,-232,-590,-541
-627,-504,2663,-263,-667,-520
-643,-530,2659,-277,-733,-472
-643,-530,2659,-277,-733,-472
-608,-411,2690,-240,-798,-450
-540,-313,2714,-153,-857,-480
-496,-333,2684,-90,-901,-531
-437,-486,2636,-47,-951,-567
-372,-659,2622,-20,-1021,-568
-255,-722,2685,-29,-1111,-513
-78,-717,2808,-50,-1202,-443
99,-800,3028,-98,-1277,-391
206,-1058,3255,-146,-1317,-354
216,-1317,3509,-165,-1313,-292
214,-1351,3870,-84,-1276,-224
272,-1012,4043,119,-1177,-168
315,-502,3896,362,-1054,-170
370,-190,3648,522,-973,-244
405,-196,3438,577,-966,-325
501,-461,3310,529,-1028,-358
587,-922,3390,409,-1129,-323
657,-1200,3617,315,-1227,-207
754,-1188,3828,316,-1279,-65
878,-982,3951,385,-1291,39
997,-708,4062,462,-1282,100
1107,-439,4172,514,-1252,119
1142,-340,4255,541,-1214,96
1071,-470,4278,545,-1189,72
1245,-334,4430,525,-1208,90
1184,-428,3363,415,-1200,81
1314,-541,3471,552,-1574,72
1724,-287,5556,388,-1676,137
1727,-371,6075,405,-1357,135
1607,-442,5515,602,-1021,143
1540,-239,4791,702,-832,198
1480,-67,4390,713,-809,228
1461,42,4526,698,-869,226
1569,55,4785,680,-900,212
1630,-192,4971,601,-879,207
1612,-503,4989,527,-838,256
1633,-663,4888,497,-798,344
1700,-618,4904,516,-764,437
1720,-331,5144,570,-717,506
1770,147,5348,665,-624,517
1811,410,5284,747,-502,454
1780,240,4978,779,-403,371
1785,-117,4718,739,-363,354
1815,-356,4622,705,-366,415
1843,-272,4663,728,-384,517
1859,130,4791,793,-379,596
1886,550,4782,871,-330,592
1925,642,4624,903,-272,518
1895,388,4485,883,-233,455
1862,134,4363,885,-210,459
1865,41,4289,917,-191,509
1878,132,4295,974,-167,571
1901,458,4472,1064,-135,616
1929,830,4603,1167,-69,621
1944,1225,4589,1191,8,607
2017,1498,4552,1156,69,567
2156,1462,4640,1081,107,516
2191,1323,4782,950,166,503
2111,1293,4731,837,252,535
2000,1417,4537,781,325,583
1938,1658,4432,733,362,607
1911,1882,4486,697,377,597
1899,2100,4559,662,392,563
1899,2255,4587,601,412,504
1896,2255,4582,514,443,428
1894,2155,4601,435,469,365
1960,2139,4741,383,494,330
2068,2290,4966,341,536,313
2161,2482,5101,278,616,282
2161,2482,5101,278,616,282
2119,2380,4975,187,728,208
1893,2047,4647,102,823,149
1733,1779,4275,55,866,139
1625,1494,4188,115,854,149
1570,1676,4262,115,870,227
1862,3109,4495,-310,955,244
1575,2655,4136,-264,1030,-114
1369,1480,4028,-58,991,-316
1411,1114,4122,73,948,-263
1471,1361,4155,93,945,-151
1404,1557,4099,76,984,-90
1323,1566,3854,108,989,-50
1394,1877,3929,-24,961,4
1381,2172,4153,-259,981,-18
1261,2223,4034,-424,1057,-114
1160,2152,3733,-508,1111,-228
1160,1914,3577,-555,1099,-348
1135,1410,3703,-537,1060,-457
1056,1153,3666,-562,1060,-467
1037,1130,3784,-641,1065,-416
1000,1189,3925,-589,1069,-392
896,1235,3841,-531,1100,-379
790,1116,3698,-501,1118,-373
642,1002,3419,-421,1095,-366
612,999,3310,-432,1034,-320
663,1009,3407,-420,962,-299
621,1020,3686,-355,918,-306
659,1167,3852,-268,924,-307
681,1146,3698,-200,964,-335
576,929,3471,-209,984,-354
465,757,3375,-262,967,-321
411,789,3456,-282,929,-274
365,962,3529,-248,911,-247
321,1058,3338,-192,919,-261
238,927,3057,-181,899,-303
102,698,2990,-201,841,-323
7,606,2898,-152,782,-321
-109,537,2689,-79,724,-322
-220,536,2674,-21,643,-316
-279,771,2743,49,554,-308
-184,951,2766,86,476,-336
-124,786,2762,42,409,-392
-166,443,2739,-80,343,-405
-172,180,2821,-254,288,-348
-127,3,2994,-359,248,-279
-158,0,3196,-356,229,-221
-234,155,3267,-332,237,-167
-291,312,3235,-340,250,-133
-325,327,3152,-379,236,-127
-390,230,3091,-460,200,-119
-453,140,3055,-544,153,-96
-453,74,3088,-607,94,-71
-410,67,3212,-615,27,-53
-291,81,3384,-615,-29,-36
-144,-2,3606,-624,-73,-27
-123,-136,3801,-620,-87,-15
-153,-192,3928,-631,-73,26
-150,-153,3960,-614,-41,73
-157,-60,3949,-562,-9,98
-213,44,3965,-531,12,113
-269,200,4011,-524,32,135
-294,414,4052,-520,47,146
-267,591,4074,-516,60,130
-191,598,4106,-497,74,69
-165,431,4115,-489,99,-16
-228,215,4101,-452,117,-88
-299,-17,4122,-434,140,-111
-343,-131,4151,-420,168,-90
-343,-131,4151,-420,168,-90
-313,-73,4213,-363,194,-64
-321,12,4189,-276,229,-84
-424,-71,4165,-219,267,-117
-497,-114,4210,-134,287,-132
-521,31,4435,1,297,-138
-361,607,4165,354,312,-260
-467,347,4243,207,331,-300
-458,142,4216,125,341,-276
-450,66,4210,55,337,-220
-465,5,4189,8,330,-153
-477,-51,4131,-21,318,-88
-459,-72,4152,-80,297,-7
-446,-28,4204,-83,273,66
-417,59,4202,-58,262,133
-407,204,4153,-60,261,202
-403,348,4140,-80,258,255
-413,468,4164,-93,246,282
-422,574,4189,-113,234,292
-450,707,4141,-161,236,297
-515,754,4062,-286,242,295
-605,691,4058,-388,240,253
-712,574,3881,-425,245,174
-750,370,3756,-485,263,90
-757,245,3636,-385,233,-18
-739,46,3599,-309,172,-105
-702,-94,3688,-240,100,-154
-644,-235,3829,-197,38,-174
-563,-344,3964,-138,0,-166
-518,-391,4119,-77,-21,-140
-522,-423,4231,-75,-17,-77
-560,-406,4235,-117,18,13
-650,-349,4209,-183,67,104


-429,564,4114,-83,383,-351
-488,613,4072,-135,395,-334
-494,718,4011,-177,402,-317
-476,769,3911,-208,400,-338
-507,716,3905,-225,389,-392
-570,631,3855,-222,381,-445
-632,595,3808,-212,383,-479
-636,654,3732,-179,377,-497
-601,666,3621,-166,367,-522
-572,578,3516,-179,345,-556
-537,400,3429,-217,313,-571
-519,216,3406,-231,273,-567
-551,119,3361,-219,233,-540
-563,142,3334,-255,200,-487
-497,188,3363,-267,170,-452
-432,238,3385,-269,147,-443
-415,227,3380,-298,139,-450
-452,143,3367,-329,145,-462
-492,31,3293,-314,155,-480
-551,-57,3149,-294,155,-490
-644,-161,3035,-310,139,-491
-759,-202,2976,-322,114,-473
-821,-177,2854,-309,77,-459
-869,-142,2778,-268,26,-466
-871,-90,2733,-184,-44,-497
-839,-33,2825,-136,-133,-523
-793,-1,2964,-136,-211,-542
-768,-17,3065,-166,-269,-548
-754,-50,3079,-213,-307,-543
-755,-70,2991,-255,-339,-534
-742,-167,2959,-284,-390,-543
-722,-279,2944,-285,-447,-558
-727,-324,2926,-286,-495,-558
-719,-325,2905,-271,-542,-567
-655,-379,2841,-233,-584,-600
-584,-521,2867,-202,-636,-645
-558,-700,3008,-165,-697,-671
-543,-809,3147,-131,-741,-652
-544,-790,3305,-111,-774,-596
-538,-667,3425,-104,-797,-520
-488,-555,3435,-126,-809,-456
-424,-529,3435,-165,-837,-417
-386,-579,3477,-222,-874,-388
-320,-654,3481,-249,-907,-371
-252,-831,3422,-244,-936,-375
-252,-831,3422,-244,-936,-375
-236,-1086,3289,-248,-962,-373
-245,-1338,3145,-264,-996,-345
-172,-1527,3070,-261,-1051,-292
-72,-1596,3256,-157,-1126,-248
16,-1508,3571,51,-1183,-223
141,-1287,3806,236,-1179,-186
271,-1063,3943,336,-1147,-159
413,-1011,4026,358,-1113,-152
473,-1219,4072,312,-1095,-140
503,-1575,4151,209,-1088,-79
460,-1856,4125,125,-1061,31
334,-2021,3985,111,-1009,151
189,-1966,3757,221,-976,262
163,-1702,3582,421,-988,355
235,-1391,3517,673,-1034,393
375,-1022,3600,884,-1101,404
655,-759,3889,994,-1183,388
920,-662,4420,995,-1256,361
1113,-621,4986,933,-1264,369
1266,-617,5230,863,-1171,390
1296,-800,5077,804,-1035,405
1280,-789,4929,684,-880,459
866,-925,3329,654,-856,474
764,-795,3761,725,-1165,569
1011,-430,5149,708,-1246,687
1198,121,5670,950,-1081,685
1322,567,5297,1026,-848,633
1359,484,4781,953,-735,522
1388,-19,4613,781,-744,455
1394,-583,4722,629,-763,481
1332,-789,4899,606,-730,581
1312,-424,5009,703,-665,721
1461,164,5054,804,-597,812
1559,523,5083,826,-515,796
1449,590,4965,763,-437,743
1422,560,4688,694,-393,706
1364,330,4463,650,-387,663
1277,168,4305,685,-393,647
1358,413,4424,757,-415,681
1602,843,4740,866,-425,688
1816,1094,4909,947,-372,632
1973,1159,4964,945,-292,564
2071,1099,5080,902,-220,513
2076,1042,5177,857,-143,502
2092,1100,5176,805,-70,527
2104,1208,5078,731,1,551
2040,1337,5017,660,65,554
1979,1512,4962,621,112,538
2007,1630,5012,577,145,498
1988,1641,5187,536,208,442
1893,1759,5119,518,288,416
1915,2129,5263,460,340,400
1937,2230,5332,422,416,328
1953,2042,5233,356,482,258
1975,1695,5234,271,535,219
1904,1369,5185,246,606,211
1754,1260,5032,299,693,223
1632,1360,4745,360,779,245
1616,1525,4521,407,834,232
1617,1463,4343,448,854,160
1531,1217,4244,475,852,104
1519,1282,4287,331,870,127
1514,1501,4285,74,918,152
1507,1660,4216,-142,951,128
1436,1585,4174,-292,955,65
1371,1435,4268,-392,951,20
1334,1378,4260,-425,984,-30
1215,1252,4112,-479,1037,-79
1215,1252,4112,-479,1037,-79
1072,1138,3943,-477,1065,-112
956,1101,3804,-446,1070,-131
828,1180,3756,-391,1052,-146
723,1362,3725,-334,1019,-161
738,1476,3621,-313,982,-202
776,1389,3573,-322,933,-266
749,1151,3623,-326,878,-325
735,929,3710,-319,840,-335
692,836,3733,-292,835,-301
619,900,3703,-275,843,-250
653,1014,3602,-256,851,-215
739,934,3591,-248,847,-226
772,701,3713,-234,839,-248
760,504,3853,-204,854,-233
703,486,3910,-149,888,-176
636,582,3864,-117,936,-109
552,731,3782,-98,982,-62
424,906,3564,-21,1015,-70
289,926,3245,50,1022,-136
138,764,3040,60,984,-217
-14,539,2993,47,917,-266
-156,395,2945,60,852,-280
-190,323,2894,83,781,-267
-168,268,2805,79,706,-248
-183,208,2867,35,615,-224
-185,201,3097,-11,530,-185
-150,252,3266,0,491,-162
-161,271,3322,24,487,-163
-198,302,3371,33,486,-158
-227,384,3418,41,482,-147
-284,444,3382,40,487,-153
-369,427,3297,29,486,-170
-457,368,3158,0,467,-177
-526,298,3054,-26,419,-178
-570,253,3000,-59,344,-167
-600,314,3089,-142,261,-131
-545,434,3295,-211,178,-101
-436,500,3546,-231,116,-114
-389,458,3745,-215,90,-158
-408,354,3844,-233,102,-185
-459,267,3876,-260,126,-184
-472,236,3865,-270,147,-166
-491,188,3798,-276,157,-146
-546,111,3712,-279,160,-130
-599,73,3623,-260,150,-115
-610,74,3565,-219,123,-107
-657,63,3590,-169,82,-106
-676,179,3657,-107,41,-97
-606,369,3726,-57,-2,-89
-472,475,3875,-12,-49,-99
-379,498,4022,12,-79,-123
-356,450,4138,-4,-94,-130
-373,367,4234,-36,-79,-117
-388,285,4228,-17,-47,-105
-433,265,4163,20,-9,-86
-468,325,4052,52,16,-56
-460,421,3957,66,20,-34
-433,470,3965,77,0,-28
-431,457,3974,63,-23,-27
-419,386,4004,44,-40,-26
-431,333,4059,47,-55,-20
-441,366,4175,78,-63,-5
-427,483,4181,152,-52,-3
-419,538,4122,165,-25,-12
-441,554,4070,154,-7,-25
-453,557,4080,133,-11,-32
-445,520,4054,124,-18,-39
-466,420,4049,105,-23,-45
-483,366,4006,126,-34,-44
-483,366,4006,126,-34,-44
-498,324,3981,71,-49,-15
-494,347,4022,51,-64,12
-459,427,4004,88,-82,22
-418,462,4017,88,-102,28
-383,471,4019,84,-119,29
-375,458,4044,71,-131,28
-396,520,4094,73,-136,31
-369,606,4143,82,-140,33
-330,643,4112,84,-144,23
-292,616,4159,27,-156,26
-298,573,4251,-31,-163,36
-296,581,4287,-57,-153,50
-334,631,4226,-59,-128,58
-377,638,4149,-75,-101,57
-388,618,4082,-69,-92,45


-68,477,4250,-100,545,-159
-74,571,4121,-100,565,-189
-86,566,4033,-104,570,-239
-140,486,4006,-122,572,-280
-210,423,3922,-138,586,-299
-288,409,3760,-150,599,-306
-362,426,3570,-165,593,-306
-431,437,3473,-182,563,-308
-462,479,3458,-196,524,-311
-469,547,3429,-209,493,-322
-492,575,3348,-237,467,-342
-547,609,3319,-287,435,-360
-568,651,3348,-314,402,-390
-553,608,3303,-323,382,-439
-591,440,3202,-347,364,-484
-666,238,3052,-385,330,-492
-691,96,2927,-421,270,-468
-693,44,2949,-437,193,-436
-661,85,3065,-429,124,-413
-619,167,3155,-442,80,-402
-582,174,3172,-455,51,-414
-563,91,3112,-481,25,-437
-559,-94,3028,-508,-1,-462
-599,-241,3016,-510,-36,-473
-624,-213,3053,-500,-63,-461
-595,-135,3088,-476,-86,-474
-563,-190,3100,-438,-106,-522
-562,-377,3072,-408,-119,-568
-574,-547,3065,-387,-141,-573
-608,-528,3116,-369,-173,-545
-632,-354,3095,-354,-196,-515
-638,-273,3033,-336,-220,-530
-637,-312,3009,-313,-255,-571
-651,-397,3052,-293,-298,-602
-631,-510,3052,-284,-338,-611
-607,-654,2965,-272,-379,-609
-619,-729,2976,-267,-435,-587
-577,-654,3076,-255,-500,-548
-493,-560,3158,-229,-542,-538
-469,-560,3195,-196,-566,-558
-460,-561,3205,-159,-587,-577
-436,-485,3235,-134,-619,-583
-384,-393,3283,-134,-652,-591
-294,-414,3297,-136,-685,-617
-236,-600,3318,-152,-720,-636
-183,-794,3304,-178,-761,-622
-117,-893,3302,-214,-812,-576
-29,-973,3325,-236,-856,-534
14,-1089,3378,-216,-878,-521
32,-1121,3377,-157,-878,-516
98,-1173,3254,-84,-863,-519
123,-1316,3137,-29,-866,-526
88,-1479,3106,9,-898,-506
122,-1503,3116,47,-948,-456
180,-1372,3287,84,-1008,-396
228,-1108,3522,130,-1053,-350
349,-872,3603,184,-1071,-348
498,-813,3610,222,-1086,-383
643,-982,3714,213,-1111,-417
643,-982,3714,213,-1111,-417
787,-1313,3823,185,-1127,-420
858,-1576,3997,158,-1124,-368
862,-1577,4096,168,-1105,-281
857,-1383,4091,212,-1074,-210
888,-1205,4105,263,-1058,-185
986,-1163,4069,310,-1048,-193
1119,-1320,4000,346,-1052,-212
1293,-1651,3987,325,-1066,-195
1424,-2029,4072,293,-1071,-127
1394,-2267,4240,292,-1054,-15
1301,-2166,4325,358,-1014,130
1355,-1664,4375,451,-966,259
1241,-1269,2950,439,-909,259
1065,-1378,2823,579,-1282,171
1423,-1501,4877,500,-1483,209
1630,-1490,5454,662,-1266,222
1737,-1306,4872,802,-991,263
1736,-1159,4292,854,-871,286
1714,-1085,4078,842,-884,313
1818,-1059,4241,766,-937,357
1921,-1129,4480,729,-957,390
2038,-1211,4565,738,-925,424
2091,-1394,4551,774,-867,453
2111,-1488,4583,837,-807,524
2105,-1266,4709,929,-735,624
2100,-705,4774,1032,-652,711
2176,-99,4799,1079,-579,735
2245,152,4902,1071,-522,677
2273,69,4914,1038,-467,607
2260,-254,4719,976,-416,579
2156,-627,4513,917,-388,606
2005,-738,4369,926,-376,692
1959,-407,4286,1003,-370,789
2021,169,4420,1088,-375,829
2165,590,4717,1140,-369,788
2326,658,4921,1172,-318,698
2392,590,5162,1138,-246,646
2430,604,5309,1102,-144,643
2423,710,5266,1107,-36,647
2423,928,5264,1073,46,660
2424,1120,5296,1008,119,658
2397,1242,5340,924,188,638
2339,1382,5461,867,248,613
2326,1580,5431,847,318,575
2324,1595,5287,776,396,511
2242,1396,5160,668,461,456
2118,1260,5001,576,509,446
2105,1310,4877,487,541,463
2180,1420,5031,400,557,466
2225,1519,5297,333,600,451
2168,1264,5450,392,697,401
2183,1455,5201,310,874,437
2161,2269,4482,-73,1011,403
1875,1699,4571,-87,1002,144
1684,593,4407,78,1013,35
1622,266,3921,165,981,150
1580,464,3821,180,870,327
1654,1036,4256,31,815,472
1670,1602,4298,-135,877,468
1591,1743,4115,-276,946,344
1564,1528,4042,-365,974,188
1509,1111,4015,-437,1007,63
1395,758,3968,-489,1039,22
1324,724,3875,-508,1061,46
1261,846,3865,-511,1063,65
1216,1010,3952,-480,1059,53
1184,1172,4009,-443,1069,19
1184,1172,4009,-443,1069,19
1116,1136,3902,-440,1092,-86
1116,1136,3902,-440,1092,-86
1045,869,3792,-455,1078,-124
1015,658,3680,-458,1035,-109
1009,535,3680,-473,982,-52
1020,526,3741,-471,936,9
1028,565,3778,-445,921,47
1022,516,3760,-384,931,41
964,437,3726,-289,953,14
878,447,3655,-186,982,-1
774,520,3514,-65,1004,-30
681,501,3313,20,1007,-75
574,385,3173,59,986,-114
471,228,3136,82,949,-129
396,109,3087,101,908,-112
283,74,2972,81,874,-69
162,89,2862,24,833,-21
111,103,2799,-11,776,12
167,54,2797,-26,708,14
182,-80,2909,-45,642,5
178,-164,3040,-50,593,19
151,-135,3118,-57,568,54
88,-25,3127,-47,565,73
9,52,3055,-25,567,60
-92,36,2970,32,556,16
-177,-46,2883,89,524,-30
-244,-101,2875,102,463,-49
-260,-33,3026,66,389,-30
-228,103,3182,22,328,-6
-187,151,3276,-30,288,-11
-167,74,3415,-63,258,-32
-159,61,3435,17,237,-61
-172,-31,3472,-53,228,-51
-209,-156,3478,-155,230,-28
-262,-212,3501,-161,218,-5
-273,-187,3561,-138,195,21
-231,-128,3665,-147,180,47
-224,-61,3744,-130,181,56
-202,10,3754,-98,184,52
-111,65,3802,-86,174,52
-50,75,3920,-105,154,55
-47,56,4051,-140,147,70
-57,50,4154,-146,156,89
-65,109,4158,-86,173,100
-113,148,4158,-92,185,115
-164,109,4263,-152,197,124
-182,126,4390,-138,224,106
-275,116,4442,-96,276,58
-279,300,4469,6,342,-4
-330,660,4157,226,407,-187
-499,352,4071,143,449,-308
-514,138,3970,138,447,-377
-522,-2,3917,135,412,-408
-525,-146,3926,138,365,-415
-537,-236,4008,161,306,-389
-566,-196,4073,187,250,-321
-551,-103,4127,148,203,-209
-504,19,4100,71,173,-87
-445,112,4081,-26,142,21
-442,205,4030,-90,105,98
-444,262,4016,-185,69,154
-400,244,4050,-250,31,167
-386,151,4045,-237,-1,134
-441,50,4039,-201,-20,91
-448,-13,4032,-165,-32,68
-416,-45,3999,-109,-37,59
-436,-67,3968,-63,-39,59
-471,-83,3959,-46,-40,78
-460,-72,3933,-21,-45,104
-437,-82,3949,35,-56,112
-437,-82,3949,35,-56,112
-434,-52,3923,113,-73,112


-399,143,3646,-176,240,-404
-407,88,3568,-188,224,-424
-407,41,3477,-205,203,-435
-399,-43,3370,-232,168,-436
-409,-129,3302,-257,125,-429
-416,-135,3298,-261,77,-419
-407,-79,3277,-264,38,-408
-403,-65,3234,-278,9,-417
-415,-124,3148,-294,-18,-437
-410,-254,3024,-320,-52,-453
-434,-425,2988,-350,-102,-450
-461,-515,2955,-352,-154,-427
-472,-488,2957,-343,-200,-401
-460,-359,3026,-309,-244,-392
-411,-214,3095,-253,-270,-422
-385,-198,3133,-199,-277,-482
-345,-226,3119,-179,-279,-538
-324,-342,3037,-173,-291,-575
-328,-501,2914,-182,-317,-583
-344,-603,2872,-203,-378,-557
-353,-619,2958,-209,-454,-520
-338,-550,3172,-189,-523,-494
-288,-427,3292,-138,-555,-507
-188,-365,3274,-105,-564,-548
-120,-433,3251,-118,-581,-590
-60,-587,3329,-151,-617,-617
11,-763,3457,-170,-651,-617
11,-859,3534,-154,-665,-604
53,-850,3465,-113,-665,-585
134,-829,3385,-100,-680,-569
205,-878,3388,-101,-718,-562
268,-967,3456,-112,-756,-550
305,-1083,3538,-123,-779,-531
267,-1179,3551,-111,-780,-506
252,-1202,3520,-69,-788,-483
285,-1103,3556,-16,-815,-459
377,-946,3618,40,-844,-453
517,-891,3696,78,-869,-477
650,-1014,3747,82,-882,-503
715,-1236,3780,62,-883,-499
723,-1444,3795,44,-877,-456
673,-1488,3719,63,-858,-383
664,-1370,3586,123,-840,-319
724,-1160,3515,208,-850,-289
830,-967,3559,262,-884,-289
959,-893,3677,274,-923,-299
1132,-989,3794,260,-948,-319
1251,-1328,3907,229,-956,-338
1251,-1653,4059,208,-944,-304
1279,-1738,4140,253,-907,-218
1262,-1662,4079,345,-846,-135
1213,-1457,3922,450,-783,-69
1213,-1457,3922,450,-783,-69
1201,-1185,3818,559,-762,-30
1219,-715,3130,473,-725,-19
1014,-955,2318,538,-973,-114
1272,-1540,3558,488,-1268,-76
1485,-1851,4206,493,-1249,27
1475,-1922,3754,547,-1119,147
1455,-1935,3387,674,-1096,244
1524,-1734,3522,770,-1132,345
1634,-1084,4023,898,-1163,416
1839,-282,4486,1043,-1128,376
2092,91,4825,1087,-1031,239
2229,-143,4880,1006,-904,96
2216,-813,4708,838,-795,60
2107,-1475,4439,651,-738,173
1950,-1950,4048,562,-721,373
1694,-2071,3668,627,-725,578
1536,-1652,3489,821,-771,750
1653,-959,3503,1067,-846,826
1970,-393,3853,1244,-918,799
2228,-269,4342,1349,-934,703
2370,-312,4732,1399,-866,639
2494,-399,4863,1449,-739,624
2490,-493,4772,1464,-596,661
2411,-458,4631,1473,-486,742
2445,-228,4623,1516,-409,834
2393,106,4687,1592,-344,891
2383,469,4707,1618,-284,940
2438,701,4562,1595,-241,962
2432,661,4374,1491,-228,970
2351,611,4285,1371,-251,1014
2348,1000,4503,1325,-293,1076
2462,1760,5004,1381,-276,1051
2608,2322,5217,1444,-164,887
2732,2391,5192,1373,-9,664
2735,1951,5068,1166,132,483
2657,1357,4952,933,224,427
2511,1018,4812,752,288,503
2349,1186,4661,653,330,638
2275,1678,4500,614,357,718
2300,2095,4448,566,362,687
2264,1948,4460,539,368,571
2158,1374,4686,645,364,521
2613,2873,5372,248,492,646
2414,3287,4817,23,769,345
2079,2121,4135,194,804,-1
2091,1171,4108,297,722,-59
2227,1119,4302,252,679,68
2245,1429,4446,132,703,191
2078,1589,4394,79,758,236
1899,1708,4259,116,794,239
1836,1954,4099,153,820,208
1786,2150,4015,156,833,119
1773,2206,3950,145,838,-5
1816,2090,3879,70,829,-124
1812,1663,3676,-18,802,-214
1779,1239,3655,-62,707,-210
1888,1379,4166,-199,650,-118
1943,1762,4497,-377,729,-78
1908,1839,4424,-529,869,-130
1827,1578,4098,-650,975,-205
1731,1247,3919,-754,1002,-236
1658,1081,3890,-829,988,-217
1651,1115,4021,-902,979,-181
1634,1191,4055,-950,1009,-186
1584,1160,3983,-968,1053,-238
1498,1063,3875,-953,1087,-301
1471,983,3804,-920,1098,-353
1487,826,3753,-869,1090,-394
1477,603,3702,-840,1060,-406
1477,603,3702,-840,1060,-406
1443,369,3711,-822,1025,-380
1338,213,3789,-761,995,-324
1217,336,3875,-668,988,-249
1170,581,3871,-551,1000,-210
1151,709,3820,-458,1014,-229
1079,638,3769,-420,1024,-260
998,464,3666,-413,1022,-268
923,253,3549,-417,1010,-246
812,134,3475,-390,988,-204
699,232,3461,-332,965,-160
644,435,3477,-240,947,-156
670,544,3467,-170,933,-197
681,465,3555,-165,916,-247
666,270,3622,-177,916,-272
577,22,3565,-196,933,-258
428,-68,3409,-218,945,-196
297,102,3243,-221,924,-121
238,345,3123,-217,870,-95
186,394,3126,-241,807,-122
121,330,3174,-288,758,-158
63,307,3128,-287,711,-191
8,247,3056,-273,664,-230
-46,191,3002,-282,616,-263
-86,158,3018,-319,555,-283
-83,161,3100,-356,492,-299
-76,166,3202,-393,446,-320
-69,112,3291,-435,410,-340
-60,29,3348,-496,384,-342
-57,-31,3411,-553,364,-331
-84,-92,3455,-592,350,-318
-142,-183,3441,-602,347,-315
-162,-325,3382,-600,344,-315
-228,-470,3395,-584,332,-310
-266,-467,3423,-534,315,-288
-217,-420,3463,-495,296,-266
-191,-415,3575,-474,272,-261
-208,-437,3695,-452,261,-260
-251,-474,3622,-412,273,-268
-325,-567,3489,-385,281,-281
-419,-604,3400,-342,260,-288
-447,-616,3379,-298,215,-291
-422,-700,3424,-267,167,-298
-384,-780,3493,-238,126,-297
-420,-812,3601,-204,81,-283
-382,-756,3782,-165,41,-244
-278,-716,3844,-137,30,-208
-254,-789,3844,-139,29,-190
-306,-907,3875,-149,18,-158
-334,-931,3928,-114,4,-111
-367,-800,3977,-55,0,-68
-379,-586,4027,13,-2,-48
-327,-421,4042,77,0,-61
-242,-405,4061,96,0,-91
-236,-500,4104,98,-4,-113
-257,-537,4167,106,-10,-102
-241,-439,4245,110,-15,-75
-197,-324,4343,129,-16,-68
-125,-267,4404,170,1,-91
-96,-293,4396,210,34,-130
-105,-418,4298,206,68,-151
-147,-559,4222,168,84,-137
-182,-609,4193,158,79,-102
-218,-540,4149,169,78,-59
-227,-413,4163,165,78,-25
-195,-277,4150,162,84,-11
-164,-252,4158,134,93,-12
-180,-320,4195,127,101,-29
-251,-364,4207,143,117,-36
-251,-364,4207,143,117,-36
-294,-358,4167,194,139,-38
-317,-315,4111,252,154,-46
-341,-302,4139,240,164,-38
-363,-232,4146,256,173,-33
-357,-188,4069,256,184,-33
-359,-199,4026,215,178,-23
-389,-209,3954,176,160,-2
-441,-210,3909,105,134,31


-229,709,3954,-74,483,-245
-295,714,3740,-87,479,-269
-368,695,3554,-104,448,-294
-417,674,3397,-143,403,-311
-437,636,3259,-168,351,-335
-448,576,3117,-191,292,-356
-453,483,3005,-232,231,-366
-469,388,2921,-259,167,-375
-528,324,2886,-273,110,-376
-576,360,2880,-271,59,-373
-591,441,2882,-265,16,-383
-633,495,2885,-255,-19,-414
-674,501,2831,-264,-53,-453
-716,410,2724,-280,-93,-498
-800,263,2611,-300,-156,-532
-845,223,2562,-313,-242,-539
-806,213,2532,-329,-334,-548
-719,95,2491,-343,-427,-571
-636,-148,2475,-378,-521,-585
-576,-388,2544,-424,-611,-563
-504,-517,2602,-429,-681,-513
-506,-487,2588,-393,-722,-463
-516,-373,2545,-365,-754,-430
-474,-386,2524,-340,-805,-441
-413,-543,2599,-329,-876,-466
-340,-703,2772,-284,-943,-484
-237,-742,2869,-205,-985,-487
-129,-646,2965,-147,-1015,-475
-34,-524,2969,-104,-1041,-471
87,-552,2894,-100,-1070,-484
198,-809,2902,-150,-1118,-492
280,-1198,3024,-190,-1177,-470
336,-1432,3176,-158,-1223,-410
395,-1371,3377,-46,-1249,-340
480,-1060,3512,101,-1246,-291
587,-719,3560,185,-1234,-279
696,-552,3631,216,-1242,-304
820,-600,3707,224,-1267,-346
987,-797,3823,192,-1297,-359
1150,-1022,4073,154,-1321,-330
1295,-1127,4400,166,-1311,-264
1404,-1014,4564,217,-1251,-180
1393,-837,4568,248,-1163,-117
1353,-678,4518,272,-1091,-83
1381,-626,4452,302,-1052,-79
1473,-771,4434,299,-1037,-89
1543,-1071,4472,286,-1023,-91
1543,-1384,4390,304,-999,-59
1624,-1318,4594,308,-980,22
1457,-1505,3213,340,-931,50
1419,-1528,3241,547,-1261,123
1733,-1070,4967,541,-1390,248
1933,-521,5597,651,-1175,283
2109,-68,5346,711,-890,267
2173,43,4681,675,-723,197
2247,-237,4459,520,-732,126
2279,-1141,4708,389,-748,111
2172,-1913,4648,363,-706,233
1947,-2062,4419,375,-633,464
1779,-1793,3939,452,-565,671
1680,-1326,3641,602,-560,771
1656,-722,3636,804,-590,750
1656,-722,3636,804,-590,750
1780,-164,3864,948,-622,654
1988,67,4085,986,-625,523
2155,-161,4236,967,-609,405
2282,-535,4370,911,-582,388
2314,-760,4565,852,-543,482
2327,-664,4770,882,-483,620
2262,-310,4764,960,-380,740
2134,181,4648,1042,-278,802
2085,629,4527,1137,-211,779
2079,804,4453,1178,-176,687
2103,750,4533,1172,-163,599
2177,694,4727,1187,-146,550
2216,807,4996,1206,-107,550
2314,1095,5173,1216,-39,572
2432,1350,5306,1170,48,590
2460,1509,5469,1101,137,596
2501,1609,5508,1029,238,599
2526,1562,5338,921,340,602
2470,1425,5195,795,414,622
2336,1371,5081,717,466,666
2265,1498,4945,654,514,710
2193,1654,4813,612,556,710
2155,1772,4795,581,589,669
2139,1775,4823,555,636,601
2078,1776,4869,548,697,527
2003,1825,4852,547,776,464
1950,1800,4682,536,857,396
1905,1633,4475,482,909,340
1874,1447,4278,401,922,326
1871,1311,4244,313,901,343
1758,1113,4165,298,873,375
1719,1297,4269,240,848,461
1714,1811,4416,64,900,498
1617,2185,4309,-96,994,412
1455,2222,4139,-204,1059,244
1383,2054,4077,-277,1080,80
1355,1808,3970,-344,1080,-37
1312,1566,3904,-435,1052,-97
1257,1434,3984,-538,1016,-106
1194,1452,4040,-609,998,-96
1211,1464,4048,-627,991,-109
1273,1319,4089,-639,993,-139
1274,1082,4155,-638,1004,-148
1230,912,4109,-639,1031,-108
1149,821,3995,-597,1053,-49
1016,916,3962,-546,1059,22
901,1203,3930,-457,1062,58
853,1441,3789,-355,1068,12
820,1433,3653,-277,1060,-91
797,1209,3614,-243,1027,-190
747,993,3645,-240,984,-225
701,925,3689,-219,955,-213
682,909,3653,-197,941,-201
712,835,3615,-165,922,-201
748,657,3601,-165,905,-193
676,492,3649,-193,892,-147
573,529,3702,-172,893,-83
455,750,3606,-100,911,-48
363,984,3436,-40,920,-64
298,1052,3288,-25,909,-129
223,993,3254,-22,882,-213
207,860,3250,-17,842,-279
226,730,3170,-55,799,-306
222,627,3158,-140,740,-299
201,560,3230,-204,680,-279
177,558,3343,-239,643,-263
93,589,3345,-224,637,-275
33,652,3295,-223,640,-292
33,652,3295,-223,640,-292
-43,652,3188,-263,609,-361
-43,652,3188,-263,609,-361
-50,517,3134,-314,568,-381
-98,354,3188,-365,519,-386
-136,310,3236,-395,478,-363
-166,348,3213,-427,448,-338
-146,487,3366,-461,409,-322
-101,628,3529,-469,390,-342
-86,599,3551,-517,403,-385
-128,383,3440,-576,412,-419
-248,95,3327,-623,398,-423
-355,-63,3252,-642,368,-384
-428,-141,3189,-632,328,-343
-497,-129,3159,-612,278,-309
-508,23,3243,-573,227,-290
-478,88,3257,-527,193,-320
-475,28,3345,-489,162,-372
-447,3,3533,-459,130,-396
-388,-39,3623,-445,121,-410
-373,-213,3630,-452,120,-417
-423,-402,3608,-457,111,-393
-445,-493,3584,-427,96,-350
-499,-502,3551,-389,83,-307
-575,-369,3532,-345,67,-266
-588,-192,3483,-296,42,-254
-553,-211,3455,-280,3,-282
-538,-381,3610,-281,-44,-310
-501,-411,3803,-260,-72,-309
-451,-368,3853,-220,-62,-317
-446,-378,3859,-193,-50,-331
-427,-402,3888,-202,-54,-323
-376,-546,3924,-236,-69,-306
-385,-735,3962,-266,-87,-270
-392,-767,4015,-278,-100,-206
-376,-654,4002,-259,-107,-154
-346,-587,3989,-238,-115,-140
-324,-643,3985,-214,-125,-151
-352,-689,4027,-199,-136,-149
-296,-544,4171,-166,-150,-129
-143,-426,4291,-153,-152,-127
-80,-506,4412,-181,-132,-146
-138,-619,4482,-208,-97,-142
-199,-683,4372,-224,-53,-121
-269,-786,4205,-221,-19,-108
-385,-861,4145,-166,-19,-101
-436,-828,4129,-92,-29,-87
-419,-799,4130,-50,-34,-77
-401,-800,4176,-10,-40,-80
-367,-787,4252,40,-47,-79
-319,-722,4326,89,-45,-69
-297,-599,4387,120,-36,-56
-259,-447,4459,145,-20,-48
-181,-321,4552,182,-1,-55
-133,-284,4565,187,24,-64
-156,-327,4523,164,60,-68
-228,-388,4412,154,92,-60
-313,-416,4279,156,106,-46
-380,-413,4145,143,100,-27
-378,-375,4063,131,80,-8
-352,-347,4034,112,53,4
-344,-345,4033,82,30,13
-359,-332,4065,54,13,21
-380,-287,4120,53,2,25
-352,-247,4105,62,0,22
-333,-255,4099,44,2,21
-328,-268,4157,24,0,23
-306,-233,4196,33,0,26
-286,-221,4145,46,17,21


-448,757,3725,-205,261,-442
-479,630,3471,-250,242,-468
-507,430,3205,-319,193,-467
-507,430,3205,-319,193,-467
-529,313,3115,-391,106,-426
-529,351,3161,-430,17,-376
-500,424,3189,-438,-40,-359
-478,400,3139,-443,-79,-384
-460,262,3098,-461,-119,-413
-442,86,3095,-467,-155,-430
-451,4,3116,-455,-183,-433
-445,36,3101,-422,-204,-435
-423,36,3039,-386,-225,-455
-395,-70,2934,-373,-245,-482
-373,-196,2789,-370,-281,-493
-374,-286,2718,-375,-338,-486
-385,-263,2740,-378,-406,-470
-308,-224,2700,-361,-469,-480
-180,-426,2671,-350,-532,-522
-152,-752,2734,-338,-599,-551
-116,-946,2829,-292,-646,-531
-22,-980,2867,-216,-675,-491
53,-951,2891,-149,-698,-454
64,-901,2917,-100,-710,-426
42,-839,2922,-55,-717,-407
-8,-825,2862,-9,-727,-405
-26,-828,2767,40,-754,-409
6,-773,2777,84,-813,-407
84,-676,2895,112,-887,-407
179,-669,2957,122,-946,-416
250,-830,2901,118,-996,-432
318,-1044,2892,108,-1059,-424
403,-1206,2993,107,-1125,-382
488,-1231,3113,150,-1178,-320
608,-1107,3164,195,-1215,-257
710,-1015,3204,219,-1246,-216
810,-1093,3236,236,-1270,-210
857,-1305,3226,272,-1291,-212
947,-1390,3310,342,-1322,-183
1128,-1221,3590,445,-1363,-138
1314,-956,4036,529,-1378,-114
1531,-816,4370,586,-1344,-112
1645,-910,4496,617,-1268,-118
1705,-1012,4412,621,-1206,-76
1864,-801,3910,416,-1098,8
1538,-1323,2156,422,-1310,-13
1756,-1680,3795,380,-1752,123
1974,-1792,5225,389,-1730,270
2064,-1459,5494,549,-1435,403
2144,-808,4812,741,-1150,433
2035,-539,4208,907,-1062,339
2034,-479,4391,953,-1088,267
2136,-553,4631,929,-1066,237
2191,-831,4665,871,-1004,254
2110,-1127,4563,789,-936,341
1991,-1247,4360,759,-878,467
1862,-1111,4214,850,-837,557
1747,-608,4278,1067,-819,582
1869,92,4431,1261,-803,551
2088,376,4370,1360,-775,447
2171,209,4361,1311,-768,363
2280,16,4372,1236,-781,368
2511,-159,4444,1177,-780,426
2529,-288,4668,1168,-743,496
2454,80,4956,1249,-669,602
2471,750,4961,1348,-549,670
2563,1146,4829,1371,-448,651
2676,1175,4847,1356,-395,587
2794,1096,5000,1319,-344,541
2922,1115,5273,1272,-271,545
2956,1269,5445,1234,-157,572
2949,1506,5473,1194,-17,588
2943,1686,5361,1121,109,584
2918,1733,5283,1032,208,558
2918,1733,5283,1032,208,558
2865,1809,5414,949,286,531
2822,2013,5613,897,373,506
2797,2157,5570,839,489,472
2770,2082,5411,744,591,436
2708,1946,5258,605,670,425
2643,1850,5071,478,728,433
2563,1829,5020,390,767,443
2520,2051,5102,336,793,460
2544,2309,5232,287,854,434
2496,2300,5124,242,962,338
2369,2085,4826,203,1061,240
2278,1876,4551,157,1124,172
2137,1527,4353,145,1153,120
2039,1166,4469,219,1160,137
2089,1552,4436,160,1222,253
2227,2664,4769,-200,1374,246
1795,2092,4110,-131,1518,-38
1574,1223,3732,96,1473,-159
1585,952,3698,209,1392,-97
1624,1163,3822,213,1339,5
1588,1475,3892,172,1331,60
1447,1592,3639,141,1333,51
1310,1469,3184,175,1251,32
1352,1691,3350,23,1125,60
1363,1993,3747,-229,1078,40
1341,2080,3909,-409,1109,-47
1297,1858,3817,-545,1166,-147
1233,1614,3726,-651,1204,-204
1182,1517,3709,-731,1231,-225
1115,1452,3670,-768,1267,-254
1011,1359,3562,-790,1303,-282
902,1247,3454,-794,1314,-296
849,1133,3387,-801,1296,-290
803,1020,3341,-810,1256,-264
695,936,3276,-799,1206,-224
595,921,3174,-788,1154,-181
503,926,3122,-751,1095,-156
418,1009,3139,-686,1034,-154
412,1127,3228,-619,984,-176
448,1129,3233,-561,955,-232
423,939,3243,-557,936,-290
338,723,3276,-551,923,-312
256,629,3234,-530,917,-296
180,602,3124,-512,904,-265
111,593,3006,-481,867,-240
83,586,2951,-447,806,-223
67,578,2998,-417,741,-214
10,617,3149,-372,685,-215
6,724,3245,-311,653,-224
24,747,3212,-285,643,-256
-49,637,3071,-312,635,-294
-90,537,2964,-397,606,-299
-116,457,2985,-478,559,-297
-164,365,3077,-558,514,-295
-233,253,3061,-605,493,-297
-360,62,2983,-641,481,-296
-449,-114,2874,-641,445,-286
-517,-169,2911,-624,383,-259
-583,-39,3023,-581,315,-225
-538,204,3146,-536,253,-210
-447,306,3258,-516,206,-249
-424,213,3380,-510,174,-312
-406,98,3470,-484,157,-365
-378,19,3511,-447,152,-405
-342,-65,3509,-421,149,-438
-370,-185,3530,-390,140,-466
-412,-252,3652,-356,129,-478
-421,-241,3709,-251,122,-493
-421,-241,3709,-251,122,-493
-446,-290,3630,-253,120,-492
-444,-438,3621,-391,108,-446
-376,-602,3653,-450,81,-405
-355,-746,3706,-455,58,-370
-390,-742,3804,-427,41,-323
-388,-525,3900,-374,37,-276
-297,-325,3963,-325,45,-274
-251,-384,3991,-294,57,-322
-293,-563,4027,-279,70,-354
-318,-676,4050,-269,77,-339
-353,-662,4074,-252,77,-297
-383,-590,4010,-239,76,-252
-394,-607,3933,-238,67,-229
-466,-682,3905,-204,43,-230
-516,-691,3842,-155,24,-227
-572,-734,3733,-86,5,-240
-629,-823,3675,-38,-22,-253
-643,-868,3749,-12,-66,-239
-611,-765,3948,7,-115,-195
-477,-553,4217,17,-142,-142
-324,-405,4386,39,-133,-129
-278,-395,4465,30,-95,-136
-308,-490,4425,22,-42,-143
-400,-573,4304,36,2,-142
-521,-509,4143,84,22,-127
-550,-372,4028,86,16,-108
-471,-297,3963,62,-18,-111
-404,-397,3993,-10,-61,-127
-392,-589,4106,-88,-100,-124
-422,-719,4147,-100,-123,-105
-461,-714,4161,-65,-134,-73
-452,-595,4168,-30,-140,-34
-364,-468,4244,-32,-144,0
-280,-398,4315,-31,-136,8
-242,-400,4338,-25,-107,-2
-257,-444,4313,-11,-69,-20
-292,-469,4268,20,-36,-32
-274,-429,4249,70,-14,-39
-273,-409,4212,112,3,-49
-278,-445,4130,111,29,-57
-338,-525,4034,102,47,-62
-421,-551,3946,105,50,-51
-431,-475,3906,114,27,-21
-391,-367,3944,133,-2,-1
-354,-287,4045,143,-29,1
-324,-180,4161,140,-41,0
-304,-90,4215,135,-35,-7
-304,-66,4209,112,-16,-22
-317,-120,4186,85,0,-37
-339,-164,4168,80,5,-46
-347,-173,4116,77,9,-43
-357,-223,4032,57,10,-35
-381,-313,3938,38,2,-31
-427,-374,3924,34,-15,-18
-440,-303,3959,39,-45,9
-358,-183,4058,31,-77,32


-507,37,3021,-285,-141,-402
-464,-4,3075,-306,-199,-390
-442,-83,3090,-347,-239,-379
-446,-177,3099,-361,-269,-370
-502,-182,3075,-337,-295,-360
-517,-63,3035,-315,-318,-350
-493,95,3013,-276,-352,-369
-461,225,3036,-246,-393,-415
-392,239,3046,-254,-434,-469
-305,78,3052,-318,-475,-511
-267,-209,3072,-385,-520,-533
-277,-489,3057,-412,-565,-518
-299,-625,3044,-419,-606,-468
-246,-610,3065,-409,-650,-412
-147,-596,3108,-384,-695,-386
-90,-669,3170,-351,-727,-394
-58,-765,3213,-321,-747,-397
-35,-802,3167,-288,-761,-386
9,-846,3106,-259,-779,-381
33,-968,3052,-223,-808,-390
23,-1130,2943,-193,-839,-380
30,-1286,2829,-179,-875,-348
13,-1322,2807,-132,-934,-310
65,-1164,2964,-38,-1009,-277
215,-809,3214,79,-1079,-268
428,-520,3467,130,-1126,-287
610,-520,3638,93,-1139,-325
743,-763,3671,14,-1135,-345
830,-1125,3626,-65,-1137,-312
802,-1485,3506,-119,-1141,-229
756,-1779,3233,-111,-1138,-128
646,-1901,3095,-21,-1159,-48
620,-1554,3227,173,-1218,20
850,-910,3515,363,-1273,48
1131,-570,3871,479,-1295,-19
1320,-637,4004,525,-1273,-118
1531,-963,4011,444,-1245,-149
1655,-1440,3980,387,-1255,-124
1824,-1432,4326,257,-1242,-19
1529,-1947,2459,309,-1268,18
1615,-2063,3057,452,-1684,170
1814,-1789,4531,366,-1775,365
1886,-1259,5030,446,-1555,456
1969,-697,4893,694,-1305,435
2004,-454,4521,907,-1134,322
2077,-564,4247,901,-1048,227
2159,-879,4287,817,-1042,198
2197,-1088,4585,735,-1060,267
2275,-1107,4640,691,-1032,387
2327,-1190,4505,648,-962,488
2239,-1366,4235,694,-888,544
2021,-1472,4325,874,-838,575
2041,-1275,5294,1260,-740,647
2273,-523,4798,1441,-397,721
2138,-275,2851,1678,-394,656
2138,-275,2851,1678,-394,656
2292,160,3354,1476,-715,688
2376,239,4412,1264,-865,651
2416,118,4993,1265,-796,613
2439,302,4585,1279,-624,636
2342,615,3784,1184,-594,607
2257,282,4562,1342,-703,538
2443,348,5060,1446,-621,585
2561,617,5056,1550,-465,631
2652,948,5145,1591,-317,661
2636,1244,5225,1623,-181,664
2610,1499,5240,1665,-59,653
2612,1703,5269,1646,55,638
2584,1860,5292,1609,168,616
2547,1974,5184,1542,270,593
2548,2024,5056,1433,340,578
2600,2192,5032,1228,372,587
2642,2441,5119,951,387,588
2612,2552,5220,725,415,543
2515,2470,5179,561,457,474
2422,2292,5089,426,507,412
2365,2155,4971,329,564,361
2330,2028,4851,270,615,314
2324,1936,4862,261,660,265
2341,1891,4870,265,718,218
2342,1856,4840,248,785,180
2326,1767,4747,222,859,143
2223,1631,4575,196,930,106
2131,1564,4453,191,975,80
2107,1518,4368,210,1012,48
2088,1407,4316,228,1040,17
2064,1283,4331,253,1061,6
2023,1256,4296,267,1100,21
1961,1281,4190,301,1135,30
1914,1364,4017,298,1168,31
1783,1294,3727,277,1171,14
1637,1135,3453,306,1088,32
1691,1480,3707,115,999,117
1697,1875,4003,-146,1005,119
1623,2069,4151,-341,1075,22
1548,1993,4087,-446,1161,-114
1509,1809,3918,-510,1216,-232
1445,1642,3896,-612,1236,-297
1354,1416,3848,-694,1246,-317
1272,1271,3639,-789,1241,-290
1174,1241,3621,-906,1205,-247
1149,1261,3741,-963,1185,-224
1129,1252,3698,-1010,1195,-222
1036,1148,3523,-1026,1192,-238
924,966,3443,-994,1155,-242
812,814,3401,-907,1106,-230
746,781,3420,-803,1053,-206
714,863,3521,-662,1007,-186
684,1005,3632,-542,992,-184
656,1146,3682,-437,999,-207
633,1186,3610,-376,1017,-244
553,1051,3446,-377,1027,-281
453,830,3296,-400,1009,-288
367,634,3185,-385,970,-265
295,523,3102,-363,916,-217
243,564,3176,-351,852,-150
246,722,3268,-291,797,-114
285,847,3316,-243,769,-122
285,857,3326,-231,760,-160
260,835,3357,-251,755,-193
238,796,3292,-263,753,-223
177,690,3176,-307,748,-246
56,625,3064,-333,726,-267
-1,620,3020,-333,681,-279
-35,583,3018,-321,636,-307
-35,583,3018,-321,636,-307
-80,527,3062,-327,587,-328
-99,488,3128,-348,547,-335
-132,451,3116,-363,520,-345
-176,399,3061,-379,492,-355
-188,343,3029,-414,462,-357
-200,286,3047,-450,414,-350
-229,287,3143,-500,367,-335
-251,288,3252,-547,337,-328
-281,224,3241,-585,330,-342
-352,123,3205,-600,315,-365
-423,53,3261,-590,290,-379
-419,18,3288,-548,266,-394
-419,-30,3293,-523,240,-405
-452,-19,3347,-520,210,-401
-445,21,3417,-531,182,-397
-440,-40,3417,-550,160,-407
-475,-183,3390,-559,135,-416
-500,-287,3396,-553,98,-406
-504,-337,3475,-536,56,-386
-474,-334,3615,-496,12,-369
-443,-288,3742,-464,-19,-356
-422,-226,3850,-453,-26,-344
-403,-199,3848,-432,-26,-356
-378,-302,3768,-431,-28,-375
-379,-487,3720,-426,-46,-389
-370,-574,3804,-408,-78,-373
-335,-514,3948,-380,-99,-341
-265,-453,4069,-335,-101,-333
-235,-485,4126,-303,-93,-337
-220,-578,4112,-316,-74,-320
-222,-739,4028,-344,-58,-289
-258,-952,3942,-358,-50,-253
-346,-1096,3881,-334,-53,-207
-412,-1067,3857,-267,-61,-156
-454,-920,3933,-170,-71,-132
-449,-727,4053,-50,-76,-145
-367,-597,4168,13,-76,-172
-288,-599,4280,17,-73,-194
-249,-679,4387,4,-64,-198
-255,-749,4394,17,-46,-186
-311,-771,4272,47,-22,-170
-349,-792,4156,93,-19,-166
-356,-828,4109,171,-35,-173
-334,-859,4143,269,-47,-180
-326,-788,4075,429,-52,-202
-373,-796,4086,419,-53,-191
-390,-686,4114,417,-55,-167
-318,-540,4168,424,-62,-146
-222,-486,4225,397,-66,-137
-206,-471,4310,364,-65,-130
-191,-427,4365,344,-57,-112
-140,-364,4374,318,-40,-91
-129,-322,4368,267,-19,-74
-130,-290,4370,204,1,-45
-104,-257,4370,159,22,-20
-116,-252,4329,132,42,-4
-182,-280,4240,111,63,6
-254,-270,4133,105,72,9
-308,-228,4043,101,70,10
-334,-204,4017,94,55,4
-329,-214,4036,69,35,0
-305,-202,4067,38,20,4
-303,-173,4099,25,12,7
-290,-125,4140,4,5,9
-248,-95,4187,0,3,6
-235,-126,4217,-1,11,-1
-281,-175,4192,-7,28,-7
-319,-193,4117,-7,48,-4
-339,-200,4049,5,50,-5
-339,-200,4049,5,50,-5
-360,-199,4041,12,36,-4
-343,-198,4055,3,22,2
-338,-239,4050,0,10,5
-346,-277,4055,-4,0,13


-639,359,3152,-357,-55,-402
-650,404,3066,-367,-113,-390
-624,357,3034,-378,-180,-403
-609,212,3024,-399,-252,-414
-611,79,3050,-413,-319,-410
-608,71,3049,-409,-371,-394
-549,144,3009,-395,-418,-392
-472,130,2969,-375,-468,-420
-390,3,2944,-371,-514,-453
-336,-155,2869,-373,-550,-472
-308,-295,2770,-372,-587,-472
-225,-379,2713,-348,-639,-465
-141,-472,2775,-314,-700,-466
-89,-556,2895,-270,-753,-470
-65,-537,3016,-231,-782,-459
-26,-451,3051,-189,-793,-453
23,-439,2990,-167,-801,-469
71,-562,2936,-170,-831,-487
126,-712,2937,-173,-877,-482
234,-779,3030,-144,-932,-456
344,-745,3172,-99,-978,-422
484,-668,3329,-69,-1009,-396
620,-657,3470,-63,-1018,-382
704,-724,3612,-71,-1018,-371
738,-818,3735,-82,-1011,-342
744,-869,3748,-85,-992,-293
753,-833,3700,-91,-978,-232
767,-777,3649,-78,-984,-192
774,-778,3610,-65,-1006,-180
838,-912,3528,-74,-1028,-186
868,-1206,3454,-75,-1054,-197
913,-1502,3383,-43,-1092,-182
994,-1706,3370,0,-1130,-129
1059,-1757,3461,74,-1167,-69
1144,-1617,3648,204,-1188,-19
1270,-1283,3917,369,-1182,-4
1383,-822,4337,500,-1155,-16
1504,-540,4486,602,-1097,-56
1782,-266,4779,474,-1016,-68
1600,-815,3188,278,-986,-122
1595,-1430,3430,279,-1384,-58
1669,-1756,4999,63,-1525,132
1655,-1490,5629,128,-1312,304
1841,-663,5393,330,-1029,401
1962,-232,4603,504,-857,321
1989,-457,4323,515,-851,210
1945,-848,4434,427,-866,179
1950,-1051,4593,373,-841,225
1933,-1090,4664,416,-787,302
1934,-916,4634,506,-719,381
1948,-720,4479,567,-655,434
1987,-722,4207,567,-617,458
1978,-958,3993,529,-619,478
1876,-1225,3860,535,-634,519
1695,-1214,3853,633,-644,578
1647,-757,4036,807,-653,630
1803,-169,4157,972,-628,617
1942,10,4133,1034,-574,527
1981,-182,4122,1023,-530,447
1958,-393,4090,1041,-505,432
1969,-515,3959,1084,-477,472
1912,-417,3930,1146,-463,543
1902,-7,4051,1248,-457,615
2099,455,4209,1344,-431,629
2202,684,4428,1398,-390,586
2339,873,4724,1447,-339,544
2339,873,4724,1447,-339,544
2423,418,5255,1649,-257,511
2689,730,5726,1677,-20,659
2601,1573,3778,1321,242,708
2399,1643,3102,1203,-6,597
2472,1232,4338,949,-273,541
2457,821,5264,909,-256,533
2478,1131,5446,935,-44,608
2537,1955,5124,986,155,610
2504,2368,5170,975,296,460
2465,2212,5050,982,412,273
2483,1839,4906,935,481,159
2476,1450,4831,832,516,148
2460,1246,4783,682,539,233
2374,1328,4765,560,554,353
2322,1694,4891,502,563,450
2363,2064,5005,479,603,461
2343,2095,4981,444,681,382
2246,1812,4809,400,767,290
2130,1533,4642,375,828,248
2080,1452,4503,389,869,239
2045,1490,4393,428,898,222
2015,1615,4403,445,923,204
2037,1715,4419,438,952,167
2049,1708,4287,380,999,118
1948,1647,4067,287,1027,62
1754,1277,3785,260,1004,26
1786,1194,3753,179,932,82
1846,1391,4110,-76,920,146
1823,1780,4273,-366,998,157
1677,1742,4174,-574,1096,75
1514,1367,3991,-569,1144,-13
1434,1266,3933,-635,1179,-18
1366,1347,3879,-682,1203,-22
1301,1359,3797,-684,1208,-45
1252,1425,3797,-753,1195,-65
1179,1497,3861,-840,1187,-104
1124,1515,3902,-867,1187,-169
1057,1467,3870,-868,1186,-232
1014,1318,3790,-843,1170,-290
962,1067,3751,-790,1140,-326
873,882,3687,-723,1102,-322
794,826,3680,-643,1053,-285
779,912,3740,-537,996,-243
792,1015,3776,-458,960,-217
779,1016,3773,-426,942,-212
746,915,3666,-399,933,-216
684,793,3536,-392,916,-204
611,753,3524,-365,883,-183
547,822,3633,-307,853,-165
530,949,3696,-233,849,-168
554,953,3617,-180,862,-194
519,739,3423,-177,869,-228
431,487,3288,-208,845,-217
401,419,3331,-214,797,-166
385,462,3396,-193,773,-124
320,497,3317,-180,775,-106
230,526,3216,-184,770,-99
168,548,3129,-167,748,-117
99,573,3092,-154,713,-146
68,626,3122,-157,669,-179
47,675,3240,-187,635,-218
32,693,3324,-218,617,-265
34,621,3335,-256,610,-309
-39,430,3302,-310,603,-339
-116,242,3250,-362,587,-328
-170,122,3202,-403,559,-291
-266,155,3207,-435,521,-242
-318,338,3269,-454,479,-206
-286,451,3297,-453,447,-222
-286,451,3297,-453,447,-222
-302,341,3230,-456,425,-280
-422,181,3257,-490,391,-307
-443,235,3347,-467,349,-308
-372,392,3464,-439,315,-319
-357,451,3573,-462,296,-342
-334,408,3600,-510,289,-365
-323,214,3558,-567,285,-386
-388,-9,3516,-600,268,-386
-435,-106,3567,-614,238,-352
-449,-99,3596,-593,210,-322
-462,-125,3555,-579,190,-311
-491,-221,3516,-560,166,-316
-511,-288,3534,-519,132,-321
-498,-234,3584,-476,97,-322
-489,-194,3656,-430,62,-329
-446,-194,3792,-424,47,-334
-454,-225,3834,-398,45,-356
-440,-285,3843,-382,38,-368
-400,-383,3874,-382,23,-363
-398,-431,3968,-387,8,-337
-374,-448,3972,-384,11,-310
-393,-561,3871,-391,18,-296
-465,-695,3759,-391,12,-277
-488,-783,3661,-367,-5,-253
-502,-857,3644,-301,-30,-251
-542,-874,3677,-212,-57,-254
-520,-731,3801,-124,-78,-247
-440,-558,3882,-38,-88,-264
-353,-490,3951,-17,-88,-287
-299,-558,4055,-33,-90,-302
-277,-611,4181,-22,-85,-305
-313,-599,4285,8,-69,-295
-332,-509,4325,31,-48,-279
-312,-505,4286,31,-24,-273
-323,-665,4228,7,-9,-276
-378,-812,4183,-19,-12,-251
-445,-810,4147,-20,-21,-208
-467,-710,4096,0,-27,-174
-432,-576,4075,22,-40,-160
-352,-474,4159,11,-59,-158
-268,-409,4310,-24,-71,-160
-200,-388,4398,-55,-59,-167
-137,-453,4353,-94,-35,-171
-143,-616,4258,-152,-10,-159
-221,-759,4190,-190,1,-131
-288,-778,4131,-159,7,-98
-316,-694,4092,-87,13,-82
-288,-628,4069,-28,14,-85
-269,-669,4102,-11,8,-99
-300,-715,4163,0,4,-98
-340,-664,4162,48,9,-88
-345,-600,4064,88,17,-84
-338,-622,4017,118,11,-95
-346,-682,4009,141,-1,-97
-384,-717,4023,132,-14,-75
-432,-660,4040,131,-20,-41
-426,-516,4091,166,-33,-20
-345,-364,4155,213,-43,-17
-275,-296,4219,219,-40,-28
-247,-318,4278,194,-25,-38
-229,-366,4280,178,-7,-35
-246,-399,4211,166,9,-21
-281,-430,4139,139,18,0


-610,389,3098,-177,-227,-402
-576,332,3038,-204,-276,-422
-587,222,2966,-251,-316,-430
-604,128,2843,-293,-361,-421
-605,59,2655,-324,-417,-401
-580,-6,2529,-363,-498,-377
-580,-6,2529,-363,-498,-377
-537,-81,2554,-392,-602,-356
-473,-142,2654,-407,-699,-337
-407,-180,2706,-419,-776,-320
-283,-263,2723,-429,-834,-324
-145,-428,2748,-409,-881,-352
-62,-572,2786,-372,-918,-367
20,-594,2813,-315,-942,-361
104,-572,2810,-270,-959,-352
155,-616,2755,-236,-980,-354
194,-700,2579,-204,-1005,-345
245,-768,2386,-212,-1059,-314
401,-921,2263,-232,-1159,-290
565,-1203,2252,-257,-1282,-278
675,-1461,2545,-253,-1405,-252
816,-1472,2976,-95,-1484,-238
1017,-1183,3350,119,-1494,-239
1277,-863,3754,218,-1473,-243
1561,-789,4184,219,-1434,-254
1672,-979,4563,179,-1359,-240
1561,-1164,4720,108,-1244,-148
1355,-1208,4520,18,-1118,0
1166,-1267,4050,-26,-1025,112
992,-1400,3545,23,-996,155
814,-1398,3290,158,-1034,169
763,-1059,3264,370,-1145,176
1231,-36,3855,471,-1269,169
1356,-82,2481,522,-1427,-10
1834,-451,3699,495,-1901,-84
2260,-956,5650,201,-1943,-34
2446,-1397,6401,120,-1581,66
2285,-1529,5811,213,-1135,198
1961,-1408,4699,406,-876,325
1795,-988,4161,496,-818,430
1800,-657,4692,584,-839,432
1870,-749,4491,735,-754,383
1957,-783,3931,791,-788,367
1995,-958,4208,656,-862,387
1905,-1154,4367,648,-859,417
1828,-926,4445,729,-814,476
1868,-385,4370,841,-748,498
1942,-17,4231,877,-711,448
1920,-38,4192,841,-714,366
1943,-221,4064,754,-731,337
2086,-517,3982,638,-766,355
2071,-941,4099,546,-778,409
1918,-1172,4214,577,-737,515
1710,-986,3975,788,-654,628
1775,150,3165,910,-625,707
1883,617,3163,1090,-820,555
2320,434,4443,1229,-973,424
2668,330,5100,1227,-869,382
2834,288,5279,1257,-664,391
2944,367,5093,1249,-462,452
2942,463,4928,1205,-319,515
2959,575,4932,1221,-230,564
2978,704,5162,1248,-136,602
2958,885,5228,1304,-5,629
2934,1052,5120,1328,130,644
2894,1236,5042,1313,239,641
2839,1375,5018,1305,328,615
2841,1512,5023,1278,400,591
2837,1677,5048,1206,458,568
2871,1909,5059,1073,508,549
2900,2088,5003,866,551,507
2834,2010,5105,647,583,439
2729,1785,5077,490,638,391
2638,1592,4966,353,702,389
2557,1470,4881,301,751,394
2482,1493,4894,285,798,398
2440,1599,4837,309,866,371
2440,1599,4837,309,866,371
2383,1565,4683,326,945,316
2272,1445,4544,341,1012,260
2162,1464,4488,364,1055,228
2101,1607,4498,398,1097,195
2033,1677,4408,423,1148,140
1933,1585,4246,411,1180,79
1826,1381,4057,381,1187,41
1706,1217,4002,366,1169,39
1609,1294,4021,393,1153,60
1562,1645,3963,397,1153,65
1532,1875,3799,344,1149,9
1427,1606,3456,328,1085,-76
1482,1531,3569,158,978,-66
1563,1662,3999,-137,949,-41
1597,1821,4262,-377,1015,-59
1592,1817,4240,-519,1133,-126
1481,1666,4045,-601,1242,-214
1368,1535,3831,-660,1309,-275
1231,1305,3590,-688,1343,-318
1131,1159,3356,-724,1329,-322
1055,1134,3317,-791,1278,-313
969,1143,3414,-833,1239,-313
892,1191,3369,-854,1218,-327
825,1142,3250,-842,1171,-362
747,1012,3231,-792,1092,-391
720,913,3330,-733,996,-390
765,820,3454,-663,923,-375
769,696,3546,-611,878,-354
700,613,3668,-577,853,-308
620,710,3757,-505,847,-245
598,920,3721,-427,857,-205
579,1064,3640,-369,867,-217
549,1005,3532,-342,861,-258
516,836,3435,-339,836,-287
501,690,3419,-339,794,-289
473,623,3443,-318,759,-275
419,633,3470,-307,736,-254
427,656,3466,-284,722,-250
418,612,3482,-265,715,-268
320,597,3530,-244,711,-280
263,690,3574,-211,715,-282
270,769,3479,-207,727,-306
177,685,3405,-245,723,-347
96,609,3389,-286,703,-366
46,538,3348,-318,678,-372
-16,451,3332,-344,646,-374
-65,440,3362,-363,613,-361
-89,522,3403,-374,585,-344
-72,580,3374,-399,564,-348
-72,454,3335,-473,546,-371
-127,232,3304,-546,526,-382
-211,120,3269,-584,505,-370
-286,82,3214,-595,487,-359
-318,101,3170,-582,459,-360
-345,156,3179,-572,422,-370
-370,140,3206,-591,384,-387
-387,69,3227,-629,347,-400
-404,-40,3244,-662,307,-407
-390,-180,3271,-667,268,-413
-417,-282,3312,-663,235,-409
-467,-319,3332,-658,211,-387
-514,-329,3310,-671,182,-355
-553,-357,3268,-665,150,-344
-594,-443,3206,-643,115,-355
-641,-541,3228,-599,67,-370
-634,-587,3278,-531,17,-383
-586,-570,3397,-478,-30,-388
-524,-532,3578,-425,-69,-392
-524,-532,3578,-425,-69,-392
-458,-542,3677,-384,-82,-401
-399,-688,3691,-385,-84,-397
-409,-896,3664,-395,-93,-369
-453,-975,3672,-389,-106,-309
-492,-830,3752,-347,-125,-247
-488,-559,3856,-292,-139,-215
-409,-377,3940,-238,-144,-240
-352,-501,3956,-222,-143,-305
-380,-824,3940,-238,-140,-344
-422,-1051,3901,-238,-150,-322
-389,-1072,3911,-203,-173,-271
-363,-940,4051,-136,-199,-227
-273,-701,4272,-79,-208,-206
-79,-610,4436,-50,-191,-221
-13,-771,4559,-56,-152,-249
-41,-958,4557,-53,-104,-238
-119,-1044,4399,-42,-61,-190
-219,-1074,4211,-61,-34,-131
-256,-1059,4093,-65,-31,-82
-242,-1019,4100,-48,-54,-49
-211,-920,4222,-14,-75,-29
-137,-792,4303,22,-77,-23
-118,-745,4358,40,-59,-31
-128,-742,4367,70,-29,-46
-160,-771,4325,95,0,-57
-212,-779,4278,116,22,-53
-230,-709,4262,120,34,-33
-189,-590,4316,120,32,-12
-153,-479,4402,116,34,-3
-139,-461,4421,95,51,-3
-169,-524,4316,65,77,-3
-236,-622,4156,42,95,4
-301,-651,4014,57,89,15
-313,-628,3979,88,67,23
-277,-545,4065,142,37,22
-220,-449,4173,183,19,17
-178,-417,4219,195,28,6
-190,-440,4264,211,46,-11
-219,-377,4216,315,64,-39
-244,-380,4155,344,83,-59
-281,-448,4105,321,100,-62
-299,-480,4086,326,109,-56
-327,-473,4049,359,112,-49
-408,-416,4029,367,112,-30
-431,-327,4020,376,108,-9
-375,-279,3985,390,106,-9
-379,-298,3969,389,104,-24
-436,-321,3947,372,97,-24
-451,-336,3875,348,91,-7
-453,-343,3784,321,77,2
-464,-330,3756,283,45,16
-471,-283,3768,233,4,39
-452,-226,3771,173,-31,60


-668,484,2951,-317,-157,-403
-664,637,3031,-353,-249,-345
-612,795,3048,-375,-311,-342
-536,842,3071,-399,-367,-382
-437,820,3143,-427,-420,-430
-329,691,3175,-477,-455,-476
-276,482,3167,-529,-484,-507
-254,297,3100,-571,-508,-508
-208,195,3015,-604,-537,-496
-151,49,2948,-616,-573,-495
-95,-173,2922,-626,-615,-494
-57,-346,2959,-619,-660,-471
-8,-347,3037,-568,-699,-447
-8,-347,3037,-568,-699,-447
66,-300,3098,-491,-720,-452
134,-284,3129,-398,-727,-488
167,-357,3125,-333,-730,-531
207,-481,3116,-300,-737,-551
211,-546,3194,-271,-756,-547
242,-518,3231,-233,-770,-527
286,-542,3198,-207,-778,-521
313,-614,3162,-193,-802,-510
372,-650,3189,-203,-845,-477
432,-677,3296,-216,-897,-440
476,-689,3418,-205,-937,-412
495,-699,3428,-175,-954,-398
530,-768,3369,-157,-969,-390
570,-911,3297,-147,-1000,-382
609,-1083,3291,-134,-1046,-358
698,-1162,3354,-106,-1103,-310
853,-1196,3390,-85,-1145,-255
1008,-1294,3410,-58,-1164,-219
1197,-1422,3480,-3,-1173,-197
1300,-1536,3696,44,-1177,-164
1347,-1496,3940,103,-1150,-107
1387,-1324,3987,191,-1093,-62
1404,-1218,3926,255,-1038,-48
1465,-1103,4140,334,-1020,-58
1398,-1307,3666,398,-955,-83
1398,-1563,2973,513,-1122,-50
1633,-1531,3481,379,-1342,71
1714,-1519,3739,240,-1476,164
1857,-1442,4746,208,-1514,248
1989,-1292,5204,306,-1350,291
2081,-1022,5080,452,-1134,310
2062,-714,4899,516,-962,292
1960,-619,4683,531,-857,264
2015,-683,4599,483,-829,289
2094,-947,4638,420,-827,331
2045,-1416,4535,400,-797,387
1860,-1794,4231,449,-739,473
1616,-1745,3991,610,-693,577
1546,-1213,3853,884,-675,638
1636,-504,3816,1125,-686,611
1900,-109,3950,1210,-723,522
2103,-357,4104,1140,-741,430
2124,-915,4225,1002,-733,443
2132,-1077,4318,998,-703,558
2059,-764,4403,1107,-634,683
1997,-14,4460,1276,-539,749
2071,701,4296,1423,-438,698
2156,859,4109,1443,-388,570
2286,590,4182,1382,-403,483
2443,375,4441,1325,-427,489
2569,308,4659,1296,-400,557
2641,522,4810,1329,-339,648
2679,975,4959,1382,-252,707
2738,1366,4969,1408,-141,700
2748,1453,4862,1366,-34,655
2693,1349,4765,1284,45,622
2619,1323,4701,1208,103,631
2599,1466,4720,1151,155,647
2543,1648,4687,1123,216,626
2481,1783,4637,1062,271,587
2478,1766,4491,995,322,527
2439,1652,4407,935,346,470
2423,1809,4573,896,343,452
2517,2122,4811,866,369,423
2604,2222,4923,807,433,351
2671,2154,5067,688,505,298
2689,1970,5092,559,595,273
2579,1727,4914,437,690,285
2417,1568,4711,344,760,332
2417,1568,4711,344,760,332
2153,1162,4530,464,789,399
2528,2617,4991,105,892,555
2234,2719,4491,11,1080,303
1987,1936,3816,170,1053,82
2046,1560,4443,210,949,44
2060,1475,4775,296,999,71
2044,1752,4479,367,1101,109
1907,1798,3858,406,1116,101
1792,1750,3918,332,1026,118
1842,2100,4179,74,1021,164
1844,2565,4189,-324,1110,118
1658,2128,4091,-374,1152,-68
1662,1659,4060,-376,1174,-157
1643,1479,4058,-456,1220,-164
1557,1535,3998,-514,1266,-154
1483,1670,3868,-529,1289,-169
1407,1656,3784,-538,1286,-210
1365,1628,3755,-565,1262,-245
1324,1606,3815,-649,1251,-272
1242,1439,3847,-712,1260,-304
1172,1280,3741,-771,1272,-307
1054,1134,3558,-789,1254,-298
920,1004,3497,-764,1207,-279
818,919,3554,-682,1156,-261
767,938,3618,-542,1122,-247
738,1080,3670,-411,1104,-236
728,1218,3708,-325,1098,-242
727,1242,3673,-306,1102,-262
639,1163,3641,-327,1098,-277
555,1112,3614,-341,1085,-270
510,1110,3543,-352,1071,-250
446,1101,3465,-365,1045,-240
379,1061,3391,-375,1018,-238
312,1013,3307,-394,990,-238
258,989,3276,-409,954,-244
211,955,3284,-420,920,-257
163,890,3197,-430,898,-273
105,740,3020,-449,877,-294
-30,547,2855,-467,837,-311
-133,456,2764,-473,770,-301
-154,560,2817,-479,690,-275
-118,716,2953,-490,622,-273
-64,778,3090,-529,583,-301
-71,694,3203,-589,569,-339
-122,609,3226,-645,566,-353
-186,587,3148,-687,572,-354
-274,539,2992,-730,569,-363
-366,403,2802,-787,538,-380
-466,229,2688,-850,480,-389
-556,107,2650,-878,401,-390
-591,39,2654,-861,316,-402
-607,-47,2717,-839,235,-417
-616,-146,2822,-818,170,-425
-619,-143,2980,-792,115,-419
-590,-57,3160,-747,74,-415
-531,17,3249,-713,55,-430
-523,14,3319,-689,43,-465
-512,-15,3396,-664,28,-501
-450,-94,3463,-651,11,-527
-417,-257,3515,-656,-10,-540
-409,-468,3520,-680,-34,-525
-461,-644,3521,-672,-61,-496
-514,-717,3544,-607,-85,-468
-530,-726,3540,-517,-102,-449
-542,-730,3514,-463,-115,-434
-500,-710,3553,-430,-137,-413
-390,-671,3659,-414,-174,-392
-305,-691,3818,-404,-202,-387
-234,-826,3898,-394,-205,-395
-234,-826,3898,-394,-205,-395
