acc_X,acc_Y,acc_Z,gyro_X,gyro_Y,gyro_Z
1149,170,5689,-93,628,-325
1097,57,5566,-165,713,-337
984,-89,5483,-233,773,-326
875,-117,5279,-272,825,-296
776,-110,5077,-313,856,-264
716,-165,5066,-282,872,-266
733,-229,5122,-185,916,-286
791,-347,5179,-91,981,-296
899,-458,5171,20,1049,-295
989,-471,5262,45,1140,-275
1025,-476,5446,54,1276,-264
1030,-148,5260,77,1464,-278
981,-8,4895,61,1628,-381
795,-197,4759,206,1714,-538
625,-434,4517,349,1771,-640
479,-680,4173,337,1799,-651
274,-874,3901,218,1769,-600
78,-962,3700,110,1693,-514
-114,-948,3655,88,1580,-443
-231,-838,3814,160,1473,-393
-296,-463,3670,448,1392,-424
-294,-470,3825,453,1297,-439
-373,-619,3992,531,1249,-468
-354,-499,3863,511,1243,-463
-395,-410,3829,384,1218,-477
-458,-403,4072,351,1208,-530
-558,-437,4149,355,1268,-612
-720,-624,3854,265,1347,-661
-781,-749,3778,279,1351,-688
-714,-623,3816,145,1374,-680
-832,-696,3604,-23,1404,-717
-1096,-1002,3328,-21,1374,-746
-1236,-1182,3175,29,1285,-694
-1338,-1273,3070,56,1170,-601
-1435,-1265,3005,44,1036,-483
-1487,-1144,2974,58,885,-371
-1456,-945,3004,40,729,-272
-1411,-765,3202,-19,586,-211
-1426,-687,3435,-103,499,-184
-1450,-638,3565,-143,460,-175
-1529,-614,3555,-161,452,-185
-1608,-570,3558,-155,442,-201
-1664,-537,3565,-137,424,-222
-1709,-614,3480,-85,408,-265
-1765,-764,3320,-10,371,-305
-1765,-764,3320,-10,371,-305
-1765,-884,3151,51,298,-310
-1759,-1023,3104,82,196,-286
-1705,-1076,3218,116,86,-237
-1625,-1043,3351,183,6,-189
-1561,-995,3444,261,-39,-154
-1552,-839,3651,338,-69,-113
-1444,-527,3786,469,-72,-82
-1317,-300,3792,593,-56,-96
-1291,-246,3748,647,-44,-124
-1310,-254,3626,628,-41,-126
-1356,-282,3433,586,-44,-110
-1457,-345,3057,572,-60,-92
-1546,-466,2576,571,-123,-71
-1601,-568,2203,552,-250,-29
-1548,-607,2083,549,-411,25
-1485,-601,2094,573,-567,75
-1454,-590,2191,605,-700,122
-1408,-445,2411,669,-815,167
-1271,-91,2775,802,-909,198
-1061,342,3107,932,-952,188
-853,533,3327,937,-955,133
-736,525,3437,866,-957,84
-712,418,3480,726,-959,73
-734,226,3328,595,-959,85
-813,-109,2990,464,-981,114
-919,-314,2703,403,-1058,181
-912,-209,2629,428,-1185,260
-792,4,2777,454,-1325,316
-539,298,3116,455,-1454,344
-302,445,3569,447,-1540,320
-110,480,3983,411,-1570,291
71,559,4119,369,-1554,266
194,614,4412,242,-1516,232
133,416,4573,187,-1425,195
104,391,4246,244,-1325,203
83,326,3869,212,-1301,222
17,215,3852,159,-1367,241
32,250,3869,134,-1441,267
106,230,3889,87,-1500,278
154,119,3899,45,-1557,283
240,54,3932,-19,-1612,320
370,222,4174,13,-1667,351
529,535,4503,116,-1686,339
718,799,4622,192,-1639,277
838,718,4609,173,-1573,183
844,484,4617,155,-1524,112
844,294,4574,156,-1470,82
820,210,4482,191,-1425,78
819,398,4352,252,-1405,94
845,627,4327,291,-1417,89
920,717,4288,309,-1443,55
998,623,4254,254,-1473,24
1034,424,4252,177,-1496,14
1097,375,4379,141,-1513,37
1249,566,4521,137,-1514,75
1376,821,4685,133,-1502,85
1507,1078,4683,97,-1475,69
1501,715,4618,-44,-1438,6
1385,-80,3957,55,-1490,0
1516,-210,4220,-99,-1608,151
1510,-292,4380,-260,-1628,279
1536,49,4404,-173,-1628,358
1727,698,4544,4,-1629,348
1963,1039,4914,139,-1605,225
2243,1125,5409,303,-1539,59
2600,931,5808,400,-1412,-92
2695,316,5997,398,-1255,-175
2603,-102,5946,381,-1102,-104
2539,8,5780,279,-955,59
2539,8,5780,279,-955,59
2424,325,5411,128,-812,182
2314,577,4913,48,-740,220
2318,751,4786,-2,-758,207
2400,824,5121,-60,-790,166
2537,836,5429,-96,-752,119
2663,713,5560,-127,-654,73
2701,481,5598,-181,-524,54
2603,361,5452,-262,-371,80
2447,398,5094,-292,-233,116
2319,533,4718,-285,-143,129
2254,642,4450,-295,-104,109
2219,655,4348,-331,-105,68
2192,570,4417,-365,-119,32
2226,404,4491,-340,-116,0
2253,199,4425,-330,-86,0
2274,88,4326,-389,-61,45
2312,38,4314,-460,-43,107
2251,6,4369,-489,-13,157
2159,91,4300,-466,38,196
2118,271,4100,-417,95,206
2119,362,3911,-380,115,176
2118,335,3846,-344,105,119
2095,263,3860,-314,98,65
2088,198,3883,-313,106,25
2068,137,3928,-335,115,2
2062,90,3959,-322,126,-10
2039,37,3922,-304,141,-19
2027,-13,3813,-309,149,-20
2007,-43,3660,-312,139,-22
1946,19,3489,-313,96,-25
1910,225,3365,-326,19,-39
1959,467,3223,-498,-65,-60
2126,503,3242,-824,-179,-113
2113,157,4076,-1081,-310,-207
2491,-171,5598,-251,-345,-395
2907,-87,5112,56,-99,-430
2848,-722,5653,-539,167,-330
2611,-827,5519,-186,401,-311
2309,-732,5151,-111,662,-165
2162,-574,4791,-94,883,2
2073,-282,4366,104,1013,85
1940,-49,4027,259,1063,95
1786,120,3747,393,1049,76
1993,181,3706,318,953,124
1751,496,4066,645,827,96
1070,726,3219,767,883,-62
734,455,2415,173,891,-12
1031,211,2397,-187,709,85
1053,330,2278,-83,486,-53
1045,391,2429,-356,257,-102
1259,422,2568,-447,30,-132
1371,385,3000,-374,-180,-265
1452,325,3308,-372,-299,-358
1678,160,3747,-549,-334,-393
1775,-85,3924,-326,-340,-510
1557,-280,3865,-162,-340,-557
1380,-494,3916,-363,-294,-439
1342,-535,3985,-407,-249,-298
1434,-453,4004,-292,-221,-178
1489,-386,3968,-169,-175,-84
1542,-318,3936,-68,-130,-23
1580,-275,3942,3,-98,21
1581,-279,3937,53,-78,73
1598,-220,3912,87,-61,125
1661,-122,3912,109,-52,164
1719,10,3917,140,-47,172
1789,128,3964,170,-50,149
1886,198,4004,208,-59,100
1980,200,4039,220,-54,36
1980,200,4039,220,-54,36
1992,135,4127,208,-35,-31
1916,77,4207,212,0,-92
1810,42,4197,199,50,-127
1770,0,4109,162,109,-138
1742,-42,4005,205,142,-157
1730,-54,3922,243,144,-154
1741,-58,3927,225,131,-132
1782,-60,3950,244,115,-122
1791,-70,3966,224,96,-100
1776,-63,3977,143,76,-58
1752,-44,3991,56,64,-8
1708,-4,3998,17,53,29
1673,38,3989,3,47,53
1681,61,3994,11,51,60


1274,-344,5295,88,424,-335
1267,-387,5281,107,477,-321
1258,-400,5241,106,529,-295
1225,-361,5236,89,572,-267
1178,-293,5241,80,620,-253
1082,-269,5199,93,673,-270
997,-281,5139,130,728,-307
909,-291,5026,191,774,-356
841,-272,5033,240,790,-401
833,-124,5228,289,795,-437
944,62,5550,308,836,-470
1010,108,5716,366,927,-547
965,-47,5719,390,1061,-619
827,-316,5464,382,1209,-641
715,-397,4907,164,1320,-568
539,-492,4368,38,1307,-499
424,-547,4151,-38,1200,-417
405,-566,4141,-141,1070,-325
419,-526,4268,-147,960,-274
429,-482,4462,-86,905,-277
466,-439,4609,-72,902,-276
579,-325,4673,11,921,-297
656,-123,4682,106,937,-356
663,23,4676,111,970,-436
611,-115,4700,155,999,-547
465,-584,4837,333,1052,-635
355,-669,4724,302,1157,-585
158,-632,4530,176,1267,-503
33,-362,4086,42,1371,-426
-118,-200,3100,-178,1365,-417
-353,-530,3015,-5,1152,-501
-338,-726,3479,72,989,-502
-332,-751,3621,34,932,-462
-242,-603,3604,55,901,-435
-222,-539,3412,42,867,-448
-314,-707,3359,16,790,-472
-435,-1020,3432,129,704,-466
-467,-1029,3477,124,661,-381
-504,-821,3599,89,656,-311
-525,-612,3722,177,674,-307
-589,-737,3742,346,705,-346
-604,-628,3605,339,766,-311
-645,-430,3143,133,800,-291
-796,-597,2799,265,711,-352
-862,-824,2753,214,586,-328
-909,-936,2891,207,475,-279
-909,-936,2891,207,475,-279
-937,-842,2967,281,400,-227
-886,-672,2898,315,340,-174
-845,-606,2782,328,259,-145
-823,-661,2725,281,161,-109
-811,-743,2658,220,60,-65
-845,-830,2573,141,-32,-8
-920,-839,2589,96,-134,53
-953,-696,2677,121,-222,105
-923,-502,2708,168,-288,121
-884,-376,2751,179,-350,111
-819,-277,2800,195,-408,86
-755,-173,2878,217,-462,46
-734,-146,2886,280,-514,-32
-688,-203,2962,321,-568,-106
-633,-354,3095,339,-621,-138
-577,-434,3186,374,-674,-119
-516,-413,3211,368,-719,-65
-462,-344,3250,338,-762,-2
-442,-186,3365,352,-816,47
-445,11,3485,409,-844,56
-454,137,3511,437,-848,36
-442,190,3455,459,-874,4
-380,58,3489,458,-919,-26
-346,-103,3523,429,-974,-22
-289,-161,3593,412,-1035,17
-191,-186,3755,447,-1079,61
-80,-90,3918,460,-1085,114
29,102,4011,528,-1063,128
206,358,4047,569,-1042,113
392,518,4207,511,-1047,83
461,521,4580,483,-1053,44
539,605,4547,399,-1003,35
502,499,4416,246,-959,7
336,146,4240,168,-918,-21
201,-117,3989,126,-896,-7
177,-118,3723,166,-925,22
258,-25,3690,227,-999,49
434,97,3988,265,-1077,72
616,354,4350,315,-1115,82
762,536,4512,313,-1091,69
805,477,4584,242,-1040,34
819,389,4546,181,-999,21
862,293,4445,103,-977,41
869,106,4312,15,-982,71
792,-85,4162,-53,-999,121
688,-170,4003,-66,-1019,176
659,-44,3952,0,-1054,211
750,300,4144,142,-1102,200
986,661,4398,301,-1125,124
1198,701,4550,346,-1114,12
1354,457,4659,282,-1099,-61
1479,147,4771,197,-1084,-66
1508,-122,4806,135,-1049,-25
1404,-197,4785,113,-997,51
1330,92,4632,163,-944,130
1451,699,4804,154,-916,155
1323,366,4327,446,-914,36
1446,373,4579,606,-1045,53
1614,515,5135,526,-1080,90
1699,527,5149,432,-1018,96
1679,321,4935,364,-960,92
1639,155,4792,311,-953,120
1687,252,4958,288,-955,173
1788,482,5180,346,-923,186
1883,707,5302,407,-864,165
1998,893,5348,408,-793,131
2053,947,5269,309,-710,92
2015,754,5081,155,-635,56
1884,343,4612,61,-586,39
1884,343,4612,61,-586,39
1744,-87,4152,-3,-611,92
1649,-215,4127,-46,-663,199
1649,107,4249,-9,-680,294
1777,618,4371,114,-656,298
1968,998,4438,251,-633,215
2261,1126,4652,314,-612,86
2420,873,4917,286,-566,-29
2477,561,5109,242,-496,-62
2508,420,5129,213,-411,-20
2497,475,5086,138,-318,57
2408,593,4954,62,-228,114
2293,720,4760,31,-155,133
2214,785,4559,15,-112,120
2179,775,4445,-9,-97,90
2166,759,4463,-37,-98,62
2153,750,4506,-58,-79,32
2120,700,4453,-82,-43,9
2066,596,4310,-107,-6,-5
2012,474,4146,-123,12,-11
2000,405,4075,-134,16,0
2005,330,4038,-140,18,16
1957,277,4044,-147,23,41
1916,341,4056,-140,38,70
1906,458,4006,-112,64,74
1886,517,3930,-83,87,52
1859,528,3870,-66,96,22
1834,485,3866,-61,94,-1
1831,411,3844,-56,86,-16
1869,382,3885,-70,69,-6
1901,362,3973,-86,59,8
1917,354,4027,-99,65,26
1911,357,4017,-112,84,36
1874,380,3963,-101,98,39
1843,433,3888,-75,106,31
1804,423,3831,-59,102,16
1784,405,3843,-42,87,4
1793,425,3846,-38,79,1
1772,401,3794,-57,69,3
1761,375,3805,-75,52,10
1780,415,3816,-73,38,16
1781,438,3829,-76,29,11
1796,448,3868,-74,21,0
1818,447,3880,-51,22,-16
1833,437,3873,-42,20,-26
1843,426,3902,-60,17,-28
1854,388,3862,-77,20,-31
1831,312,3795,-84,17,-30
1847,289,3770,-81,-1,-19
1896,310,3776,-77,-33,-5
1922,308,3834,-84,-66,1
1921,261,3919,-70,-94,7
1927,239,3951,-40,-99,18
1887,289,3942,-85,-88,49
1864,391,3895,-126,-70,68
1837,461,3862,-129,-58,58
1877,484,3892,-99,-59,27
1916,438,3944,-70,-55,-7
1932,359,3964,-62,-41,-31
1897,282,3959,-37,-34,-42
1856,245,3940,9,-36,-39
1855,287,3884,44,-37,-25
1866,362,3841,18,-32,-7
1898,401,3833,-33,-36,-3
1912,399,3874,-71,-47,-14
1904,401,3890,-83,-55,-30
1907,415,3866,-95,-60,-46
1913,422,3880,-150,-66,-56
1942,410,3985,-214,-72,-66
1969,372,4086,-209,-58,-91
1969,372,4086,-209,-58,-91
1942,249,4150,-182,-34,-113
1919,175,4128,-149,0,-107
1906,165,4023,-127,35,-84
1916,169,3911,-113,57,-66
1896,169,3886,-95,53,-53
1907,195,3924,-63,48,-41
1911,239,3947,-20,51,-38
1894,260,3937,27,60,-49
1864,266,3894,4,68,-45
1844,276,3898,-70,72,-21
1876,290,3920,-91,66,-17
1889,275,3897,-81,64,-31
1884,257,3845,-92,67,-42


538,396,3640,313,-6,426
537,543,3841,309,6,385
614,556,3792,297,74,311
610,471,3624,285,110,247
545,382,3588,234,96,241
502,413,3603,181,64,271
535,534,3555,130,28,306
596,625,3484,121,-16,305
641,699,3603,135,-66,276
713,811,3804,139,-86,229
798,893,3948,168,-80,155
848,862,4017,189,-63,75
913,733,4090,162,-49,32
976,544,4137,109,-42,22
928,380,4157,55,-39,47
819,413,4209,34,-40,93
759,602,4148,44,-38,120
770,743,4036,45,-56,96
770,743,4036,45,-56,96
801,723,4096,39,-105,40
873,646,4330,11,-146,-7
987,585,4631,-5,-147,-45
1077,541,4806,-13,-107,-73
1135,480,4896,-36,-48,-91
1124,443,5005,-49,7,-96
1104,532,5130,-12,60,-98
1139,629,5245,40,119,-123
1145,653,5225,92,184,-164
1098,632,5111,108,230,-195
1086,647,5116,86,244,-207
1133,760,5261,54,248,-217
1172,953,5583,30,272,-245
1253,1134,5836,32,349,-307
1320,1112,5898,47,458,-404
1323,910,5828,65,569,-487
1245,664,5719,50,665,-516
1168,516,5458,28,750,-495
1056,468,5251,-32,794,-442
953,560,5212,-82,814,-393
836,692,5111,-136,851,-368
714,670,4843,-224,896,-383
595,488,4666,-257,912,-436
513,252,4539,-227,920,-488
435,68,4371,-239,921,-499
408,-19,4290,-259,901,-483
433,-102,4212,-288,883,-455
437,-225,4124,-355,865,-417
369,-346,4158,-415,836,-365
335,-328,4197,-421,818,-298
326,-300,4126,-408,817,-262
262,-202,4069,-400,809,-243
214,-47,4063,-359,803,-251
194,-10,4034,-245,809,-320
166,-139,4116,-198,833,-395
141,-284,4110,-222,887,-441
51,-497,3892,-198,927,-470
-53,-665,3764,-188,920,-441
-116,-642,3778,-191,888,-363
-143,-516,3667,-202,867,-286
-216,-490,3450,-223,839,-244
-294,-529,3358,-228,778,-218
-378,-458,3375,-180,703,-194
-404,-286,3385,-102,645,-194
-424,-239,3261,-48,607,-230
-500,-368,3037,-45,558,-260
-603,-503,2757,-84,478,-242
-692,-574,2524,-112,355,-195
-739,-684,2432,-112,217,-156
-847,-689,2371,-87,95,-118
-939,-580,2269,-22,-14,-97
-933,-558,2181,70,-122,-118
-940,-599,2173,187,-231,-154
-958,-585,2160,274,-333,-170
-910,-552,2187,360,-433,-172
-774,-482,2260,421,-532,-165
-650,-587,2362,450,-616,-163
-565,-748,2514,490,-689,-140
-521,-688,2672,516,-750,-55
-471,-354,2761,573,-794,23
-405,-25,2711,624,-829,55
-331,134,2605,644,-878,39
-282,134,2396,605,-953,7
-307,-63,2266,509,-1059,-8
-327,-332,2365,448,-1186,0
-297,-392,2502,505,-1297,18
-200,-269,2669,628,-1380,30
37,24,3015,791,-1449,28
342,314,3337,954,-1487,0
342,314,3337,954,-1487,0
576,501,3637,963,-1488,-11
782,616,3911,863,-1472,4
982,646,4019,798,-1452,11
1185,446,4041,704,-1441,15
1219,260,4205,578,-1455,68
1234,417,4414,511,-1454,148
1246,632,4525,466,-1427,184
1301,799,4562,452,-1401,168
1410,847,4598,462,-1383,116
1536,707,4605,472,-1365,56
1645,505,4729,444,-1354,34
1733,399,4897,429,-1330,55
1771,410,4983,410,-1267,93
1773,446,4912,386,-1189,127
1816,454,4697,365,-1134,150
1802,314,4599,314,-1118,171
1791,292,4649,306,-1124,216
1814,374,4672,321,-1107,252
1849,712,4640,346,-1083,269
1928,596,4718,479,-1035,183
1959,269,4252,832,-1062,132
2096,508,4863,722,-1113,239
2120,674,5173,624,-1024,294
2036,728,4684,595,-899,320
1906,792,4262,490,-865,353
1814,774,4135,399,-877,349
1814,510,4128,393,-897,304
1844,422,4250,452,-924,292
1925,707,4523,533,-932,296
2063,1077,4813,613,-896,259
2203,1139,4748,683,-832,183
2306,999,4646,601,-804,158
2399,818,4652,413,-801,198
2424,597,4761,259,-774,245
2293,512,4659,273,-721,279
2187,779,4604,339,-658,313
2200,1110,4523,416,-583,295
2241,1293,4400,507,-525,224
2237,1288,4176,508,-488,160
2196,1143,3998,408,-491,145
2194,998,3899,321,-515,168
2173,873,3759,245,-534,208
2132,797,3662,171,-550,255
2193,905,3727,197,-566,280
2335,1209,3963,275,-567,276
2509,1495,3945,386,-553,220
2617,1604,3962,399,-583,149
2699,1564,4464,288,-593,119
2776,1477,4661,245,-530,100
2836,1484,4602,229,-448,88
2854,1439,4525,139,-367,77
2820,1217,4387,36,-292,64
2714,1045,4269,-12,-246,71
2652,1119,4190,-3,-209,85
2682,1213,4120,29,-168,66
2694,1147,4156,57,-138,25
2713,1035,4279,80,-102,2
2718,1004,4264,63,-38,13
2659,1017,4137,24,25,29
2581,1044,4001,-13,72,43
2529,1072,3892,-36,101,44
2465,1086,3791,-64,118,40
2410,1066,3690,-82,124,27
2381,1022,3706,-93,125,14
2352,979,3675,-80,132,2
2326,896,3621,-69,143,-5
2272,838,3570,-59,151,-3
2252,889,3491,-40,151,5
2232,923,3413,-36,143,2
2232,923,3413,-36,143,2
2220,955,3420,-33,123,-2
2233,990,3446,-38,106,-6
2234,958,3499,-45,97,-20
2219,886,3494,-47,99,-25
2209,851,3448,-49,100,-17
2198,857,3398,-56,93,-6
2181,872,3362,-60,82,0
2196,865,3348,-58,64,-6
2217,840,3406,-60,45,-10
2227,843,3478,-58,32,-9
2241,818,3556,-67,30,-2
2247,820,3564,-60,46,3
2236,839,3517,-45,60,2
2209,894,3482,-33,63,0
2207,931,3450,-27,57,-10
2218,926,3452,-32,44,-21
2244,870,3463,-56,28,-25
2249,780,3528,-82,13,-17
2237,777,3583,-92,9,1
2223,820,3536,-85,19,12
2204,871,3460,-74,21,9
2211,915,3450,-65,3,0
2217,950,3497,-74,-11,-9
2262,923,3524,-99,-19,-20
2273,807,3559,-132,-25,-26
2264,808,3639,-127,-25,-16
2294,874,3633,-98,-9,-15
2271,850,3595,-75,0,-30
2245,805,3605,-50,6,-38
2250,766,3581,-34,19,-37
2235,714,3518,-27,26,-33
2205,765,3469,-29,20,-16
2223,849,3444,-32,6,-11
2262,804,3444,-48,-13,-22
2282,731,3541,-70,-38,-24
2294,755,3665,-84,-41,-11
2313,809,3676,-77,-20,-11
2314,788,3597,-64,-6,-24
2354,750,3594,-62,-5,-27
2370,701,3715,-84,-10,-17
2351,707,3845,-97,1,3


1244,307,4896,-19,542,-259
1240,261,4967,-3,561,-266
1242,334,4837,16,593,-272
1212,338,4721,-10,604,-285
1186,269,4792,-33,608,-300
1147,134,4741,-38,635,-319
1092,59,4660,-53,659,-314
1033,160,4696,-66,672,-299
1016,298,4777,-55,694,-311
1017,327,4773,-37,732,-356
1002,215,4756,-28,764,-408
939,133,4754,-1,790,-436
918,110,4742,9,813,-440
889,70,4641,10,835,-437
862,-17,4543,-6,843,-428
856,-103,4464,-48,838,-405
799,-142,4468,-77,827,-369
739,-46,4517,-87,821,-335
698,61,4546,-61,831,-340
657,83,4586,8,849,-383
604,40,4616,47,880,-420
567,-24,4611,64,919,-435
509,-129,4694,137,971,-454
401,-164,4660,230,1040,-453
335,-30,4539,319,1095,-431
280,116,4258,366,1123,-427
143,168,4077,347,1098,-430
23,122,4040,359,1048,-451
-38,-24,3927,390,1007,-476
-93,-85,3907,350,958,-463
-105,1,3964,331,906,-443
-75,73,4076,313,878,-446
-41,58,4018,313,875,-463
-41,58,4018,313,875,-463
3,-133,3981,309,861,-478
-44,-333,3990,286,852,-453
-160,-253,4061,320,856,-402
-220,-225,4015,424,877,-386
-231,-80,3730,523,889,-367
-321,48,3507,383,878,-353
-429,-155,3312,390,802,-377
-437,-376,3328,441,707,-358
-434,-322,3355,406,626,-286
-483,-86,3406,286,577,-222
-552,-14,3199,243,537,-216
-584,-180,3072,196,468,-227
-618,-414,3097,144,387,-207
-638,-514,3175,136,316,-153
-675,-562,3287,201,272,-114
-704,-475,3303,316,250,-78
-681,-238,3239,442,233,-61
-651,-109,3132,509,206,-75
-601,-83,3119,501,154,-88
-542,-93,3178,453,97,-73
-501,-165,3225,386,50,-35
-534,-210,3285,312,4,22
-633,-114,3222,283,-22,81
-709,-13,3012,275,-52,111
-760,69,2777,292,-118,119
-797,63,2667,333,-223,106
-770,-119,2692,379,-332,89
-728,-301,2776,432,-431,105
-640,-211,2871,489,-506,150
-483,39,2972,536,-559,184
-422,240,3096,555,-591,179
-379,396,3199,601,-604,156
-366,495,3231,639,-612,139
-343,575,3250,628,-641,145
-272,669,3281,564,-692,173
-276,657,3384,459,-757,205
-327,723,3478,389,-811,237
-336,806,3462,369,-855,243
-286,862,3469,351,-910,234
-199,832,3491,302,-959,223
-116,699,3642,289,-1009,214
33,711,3876,312,-1037,232
157,837,4020,310,-1033,263
210,950,4029,278,-1017,284
210,792,3871,220,-1009,285
206,532,3842,164,-1037,306
302,508,3958,155,-1083,347
451,627,4257,193,-1114,365
628,954,4562,240,-1110,371
755,1349,4670,266,-1072,346
801,1440,4636,248,-1031,284
815,1284,4624,202,-1003,233
823,1013,4516,137,-981,223
834,657,4414,56,-974,257
772,608,4456,14,-974,331
730,918,4266,39,-954,385
777,1073,4015,51,-956,365
820,887,4054,5,-996,331
845,718,4118,0,-1029,326
900,653,4134,21,-1034,331
984,683,4222,58,-1028,332
1001,791,4230,94,-1006,330
993,811,4004,120,-979,320
909,655,3776,111,-983,316
835,656,3623,143,-1016,332
910,839,3566,207,-1067,336
1058,1111,3811,253,-1143,316
1283,1337,4431,300,-1167,269
1436,1398,4331,389,-1129,206
1436,1398,4331,389,-1129,206
1517,1267,4276,374,-1122,170
1628,1017,4337,316,-1137,176
1659,806,4592,246,-1131,224
1654,938,4512,229,-1088,296
1611,1165,4347,197,-1062,327
1612,1152,4209,222,-1063,286
1711,1005,4392,296,-1094,227
1864,1060,4658,428,-1097,179
2079,1124,4786,552,-1074,129
2279,1050,5109,572,-1040,113
2462,1138,5315,563,-962,146
2529,1315,5316,549,-857,169
2464,1490,5188,528,-752,169
2401,1593,4969,507,-664,145
2401,1606,4973,479,-616,111
2430,1725,5105,457,-560,93
2416,1784,5026,426,-473,62
2335,1685,4763,394,-402,29
2284,1672,4649,350,-366,25
2352,1681,4642,306,-333,21
2411,1634,4668,252,-291,21
2392,1650,4680,198,-233,38
2329,1765,4557,138,-157,56
2242,1729,4265,71,-91,44
2135,1643,4079,39,-74,27
2106,1646,4114,14,-68,18
2074,1589,4039,3,-48,2
2074,1550,3938,-17,-38,0
2063,1478,3905,-55,-38,0
2083,1386,3820,-91,-35,4
2079,1262,3779,-136,-40,13
2078,1226,3875,-153,-47,27
2100,1263,3879,-124,-26,19
2124,1201,3800,-107,0,0
2105,1113,3875,-103,7,-9
2093,1135,3874,-99,33,-4
2046,1196,3792,-90,57,-8
2005,1236,3719,-65,64,-31
1973,1122,3657,-53,61,-62
1961,1002,3677,-46,53,-66
2007,996,3723,-54,50,-39
2017,1013,3746,-83,50,-10
1981,1052,3763,-104,62,11
1953,1106,3718,-94,77,16
1894,1101,3587,-80,89,3
1856,1098,3490,-66,81,-8
1870,1111,3535,-54,56,-19
1890,1070,3613,-48,39,-28
1887,1038,3686,-44,38,-26
1877,1072,3638,-30,43,-17
1880,1102,3600,-28,35,-7
1889,1121,3712,-40,21,0
1916,1145,3696,-46,29,2
1909,1085,3660,-65,28,2
1886,1058,3689,-81,23,11
1877,1128,3705,-71,22,21
1893,1219,3681,-61,26,17
1883,1199,3678,-61,23,-2
1878,1187,3677,-58,18,-14
1876,1192,3655,-66,16,-23
1869,1178,3670,-66,14,-33
1892,1126,3682,-56,12,-39
1905,1054,3679,-61,13,-36
1917,1048,3625,-73,12,-16
1953,1101,3683,-94,0,2
1991,1156,3812,-111,-1,9
1996,1164,3831,-118,13,0
1971,1163,3759,-120,26,-13
1948,1101,3629,-125,27,-32
1948,1101,3629,-125,27,-32
1923,979,3542,-155,5,-39
1955,947,3580,-202,-30,-21
2002,974,3679,-246,-58,-3
2047,1029,3793,-284,-70,7
2075,1073,3875,-336,-69,14
2071,1030,3948,-358,-55,14
2015,946,3901,-349,-32,13
2009,811,3986,-325,-19,17
1986,812,3982,-269,12,30
1941,901,3858,-244,54,47
1902,946,3751,-214,77,40
1863,918,3640,-164,80,11
1836,842,3629,-145,64,-2
1834,811,3736,-85,48,-10
1808,865,3739,-12,56,-15
1788,913,3663,3,63,-12
1815,964,3612,5,51,-11
1812,971,3631,-24,30,-6
1782,959,3629,-68,16,7
1781,977,3554,-95,2,19
1768,1003,3468,-118,-23,24
1810,996,3523,-139,-69,18
1887,930,3674,-146,-106,4
1967,865,3800,-163,-122,7
2021,839,3893,-187,-120,24
2054,864,3936,-205,-103,44


1429,1019,6191,-258,645,-417
1336,869,5734,-107,839,-474
1212,809,5263,-64,946,-487
1054,673,4937,-54,973,-486
891,585,4663,-76,949,-455
891,585,4663,-76,949,-455
684,568,4500,-166,905,-415
550,490,4405,-157,852,-415
484,402,4370,-161,800,-417
482,320,4436,-154,761,-420
587,239,4512,-110,752,-428
629,162,4728,-111,769,-409
675,338,4865,-29,822,-399
721,474,4675,33,911,-433
663,495,4476,-14,953,-463
599,452,4584,-90,953,-480
531,293,4649,-68,985,-516
401,130,4346,-42,1025,-526
233,112,4120,-87,1011,-493
90,171,4087,-94,963,-471
33,217,4334,-92,937,-466
-10,230,4548,-22,966,-492
-103,225,4462,57,1033,-530
-150,150,4164,134,1078,-563
-34,137,3994,255,1061,-602
48,169,4182,314,1016,-623
121,311,4355,295,1013,-605
169,258,4373,201,1040,-595
81,43,4418,134,1053,-574
-97,8,4245,117,1073,-511
-307,22,3912,67,1078,-447
-438,48,3796,22,1033,-403
-488,48,3776,18,981,-390
-529,6,3681,-7,937,-375
-586,87,3714,72,868,-375
-589,254,3952,262,813,-413
-544,283,4134,493,826,-496
-520,228,3942,639,874,-573
-569,219,3743,677,889,-606
-664,165,3771,664,885,-624
-764,-56,3468,660,892,-613
-801,-355,3039,516,848,-515
-920,-620,2765,373,740,-359
-1065,-733,2607,336,603,-201
-1176,-711,2535,312,477,-56
-1208,-550,2415,353,369,41
-1206,-272,2247,407,257,86
-1176,-142,2156,412,136,72
-1118,-166,2219,412,3,38
-1024,-219,2340,405,-108,23
-937,-370,2436,374,-194,32
-864,-376,2539,345,-269,87
-879,-256,2693,309,-323,146
-911,-195,2667,328,-348,160
-917,-248,2558,340,-381,163
-915,-280,2569,344,-443,182
-935,-50,2607,387,-513,208
-877,201,2541,439,-583,198
-795,268,2382,491,-683,159
-642,317,2823,505,-808,144
-496,320,3237,579,-846,145
-387,373,3221,641,-830,181
-262,600,3074,576,-834,249
-251,722,3000,443,-877,285
-276,737,3115,369,-945,301
-292,695,3329,346,-990,305
-349,701,3250,388,-994,301
-401,722,2875,415,-1021,299
-401,620,2783,401,-1123,296
-352,639,3095,416,-1236,306
-206,894,3414,495,-1296,302
-5,1084,3644,588,-1312,258
132,1123,3800,610,-1303,229
244,1103,3831,574,-1288,239
320,1049,3801,460,-1279,290
365,886,3632,325,-1278,353
365,886,3632,325,-1278,353
314,954,3572,269,-1353,439
322,1463,4342,213,-1387,498
293,1716,4066,327,-1278,416
287,1707,3352,377,-1254,305
331,1555,3376,311,-1365,226
470,1078,3587,231,-1455,175
602,564,3702,252,-1505,176
777,749,4272,395,-1546,238
907,1131,4579,633,-1460,257
1011,1494,4097,872,-1380,256
1192,1899,3873,853,-1408,273
1364,1880,3979,562,-1474,277
1406,1321,4310,260,-1523,304
1387,1030,4603,136,-1522,404
1420,1336,4595,124,-1472,502
1460,1803,4408,171,-1435,500
1571,2008,4530,225,-1434,406
1730,1830,4645,289,-1414,289
1881,1522,4682,325,-1376,224
2009,1339,4850,323,-1329,235
2109,1423,4881,320,-1261,293
2122,1651,4907,259,-1191,347
2075,1783,4791,193,-1130,363
2039,1637,4443,149,-1088,341
2082,1357,4403,93,-1115,339
2142,1254,4803,58,-1127,377
2184,1487,4831,68,-1061,419
2206,1684,4689,75,-986,405
2208,1762,4805,109,-937,344
2257,1846,4965,191,-871,260
2364,1769,4985,263,-795,176
2466,1712,5089,268,-732,156
2579,1891,5322,215,-660,186
2605,1881,5213,161,-561,178
2527,1717,5211,125,-495,160
2492,1693,5289,95,-410,168
2438,1776,5124,94,-312,166
2382,1844,4936,119,-240,146
2376,1778,4723,125,-189,115
2336,1569,4456,88,-169,100
2309,1407,4381,32,-172,121
2292,1335,4420,20,-153,137
2211,1427,4347,50,-103,140
2182,1661,4176,95,-46,125
2155,1791,4067,113,-10,79
2130,1770,4000,86,9,39
2099,1648,3922,34,25,20
2035,1546,3815,-10,36,24
1980,1562,3732,-47,39,40
1990,1647,3695,-79,33,49
2014,1704,3750,-124,26,45
2038,1608,3765,-148,39,22
2035,1425,3738,-153,58,9
1997,1357,3685,-147,79,17
1979,1410,3603,-132,96,22
1975,1451,3597,-120,105,10
1954,1379,3600,-119,115,-9
1967,1217,3555,-108,120,-29
1947,1086,3539,-103,115,-22
1925,1083,3504,-114,105,7
1907,1173,3447,-143,93,42
1912,1261,3449,-171,74,52
1931,1246,3482,-188,54,37
1948,1185,3491,-182,38,15
1991,1110,3530,-202,24,15
2017,1071,3686,-223,13,35
2043,1098,3826,-227,24,59
2062,1119,3860,-238,60,75
2062,1119,3860,-238,60,75
2023,1093,3760,-244,98,84
1974,1066,3637,-243,119,93
1944,1061,3563,-227,114,96
1905,1053,3519,-205,92,102
1877,1111,3467,-191,64,116
1878,1203,3485,-176,20,123
1864,1281,3607,-154,-16,107
1881,1347,3750,-152,-17,80
1924,1354,3753,-212,9,60
1982,1309,3659,-297,28,43
1973,1200,3735,-328,19,16
1974,1147,3892,-282,11,0
2011,1162,3952,-251,33,2
2014,1155,3923,-216,72,-5
1952,1102,3879,-194,106,-13
1869,1094,3780,-147,127,-13
1850,1104,3649,-103,131,-20
1831,1048,3550,-81,118,-35
1844,1009,3529,-62,88,-40
1857,1005,3554,-83,51,-25
1882,1044,3652,-121,22,-5
1924,1130,3794,-127,9,-4
1950,1248,3861,-130,13,-17
1980,1304,3927,-143,30,-50
2005,1242,3967,-124,55,-106
1986,1097,4013,-79,77,-154
1986,958,3985,-18,108,-175
1996,843,3885,30,128,-171
1976,799,3810,89,124,-150
1913,853,3778,101,107,-105
1907,1030,3832,62,91,-50
1974,1166,3965,13,98,-36
2007,1129,4083,20,125,-75
2013,1084,4089,44,167,-105
1990,1005,4002,50,211,-117
1988,997,3790,68,224,-116
1980,993,3695,8,201,-96
1973,981,3697,-17,155,-90
1980,1015,3759,-35,111,-78
1976,1059,3833,-34,80,-80
1944,1016,3915,-41,72,-103
1898,960,3979,-88,84,-110
1898,992,3936,-155,106,-90
1761,888,3258,-533,131,-47
1816,581,3718,-966,67,66
1971,1121,4048,-675,-38,110
2057,1358,4417,-652,-32,76
2076,1289,4596,-540,51,-47
1941,1081,4446,-300,151,-176
1825,1004,3868,-220,224,-225
1913,989,3988,-445,194,-135
2032,1085,4221,-404,139,-130
2104,1061,4382,-395,138,-162
2105,965,4469,-379,159,-193


1003,429,5064,-193,709,-491
961,420,5082,-207,762,-515
875,334,4900,-156,817,-558
804,244,4671,-104,832,-586
779,164,4546,-124,818,-583
789,51,4501,-144,788,-577
726,-36,4524,-137,764,-568
683,29,4549,-125,765,-554
734,185,4651,-97,784,-568
809,311,4706,-35,818,-622
821,423,4718,-33,865,-682
861,486,4677,-24,904,-758
946,290,4622,-7,933,-846
909,-32,4669,48,947,-902
831,-198,4661,46,981,-878
754,-221,4533,23,1020,-817
664,-143,4328,-1,1035,-747
552,-73,4180,-44,1022,-695
435,-100,4123,-64,1002,-676
334,-223,4008,-92,988,-669
331,-364,4139,-101,978,-670
378,-612,4256,-46,1021,-691
350,-812,4217,-40,1093,-657
315,-616,4220,-29,1144,-584
350,-303,4219,-26,1188,-546
352,-305,4208,13,1229,-581
231,-536,4012,20,1268,-612
-11,-649,3695,-19,1269,-577
-184,-675,3452,-65,1221,-539
-304,-747,3331,-96,1135,-520
-337,-739,3419,-97,1032,-492
-294,-745,3530,-87,953,-474
-350,-852,3534,-69,888,-459
-400,-971,3539,-40,831,-427
-444,-1081,3737,32,783,-380
-467,-930,3948,164,779,-310
-504,-690,3801,239,825,-272
-550,-727,3434,243,844,-267
-638,-822,3315,241,789,-248
-747,-823,3334,266,728,-215
-872,-928,3145,352,685,-189
-987,-953,2815,359,615,-142
-1092,-1040,2598,320,506,-106
-1149,-969,2568,305,369,-57
-1148,-732,2727,310,242,-29
-1105,-526,2955,379,156,-57
-1053,-429,3096,489,108,-121
-1022,-505,3218,557,79,-176
-1022,-505,3218,557,79,-176
-993,-605,3280,590,51,-178
-944,-709,3269,547,24,-122
-965,-628,3186,490,-25,-15
-955,-367,3374,377,-86,90
-1002,-305,3405,327,-108,124
-1130,-237,3149,376,-129,126
-1204,-149,2859,434,-188,98
-1186,-48,2858,439,-287,69
-1097,51,2972,427,-390,47
-1011,-24,3020,385,-475,32
-941,-183,3146,351,-553,38
-894,-120,3287,397,-608,66
-768,9,3242,477,-629,77
-686,0,3180,491,-651,76
-657,41,3249,500,-685,94
-602,72,3233,501,-711,119
-628,-72,3125,480,-743,148
-647,-81,3119,452,-798,208
-651,60,3097,436,-854,257
-625,263,3084,427,-916,273
-545,349,3056,444,-983,248
-463,301,3129,472,-1058,209
-314,308,3281,519,-1119,189
-140,338,3463,560,-1162,177
18,305,3667,571,-1188,187
76,233,3823,527,-1196,233
59,404,3821,489,-1195,295
69,670,3725,491,-1210,312
147,740,3739,496,-1243,274
209,550,3719,511,-1273,222
323,409,3755,546,-1303,207
487,625,4026,637,-1327,215
660,1020,4195,744,-1307,195
831,1228,4248,757,-1272,160
1004,1079,4415,641,-1258,150
1012,814,4518,473,-1242,207
871,745,4352,322,-1215,314
688,715,3916,229,-1199,388
574,747,3804,241,-1247,392
613,844,4204,434,-1274,344
842,1171,3957,756,-1266,285
1106,1379,3879,737,-1307,241
1230,1285,4233,585,-1365,219
1228,907,4288,471,-1361,219
1233,453,4130,394,-1349,266
1244,490,4107,394,-1362,347
1293,986,4207,468,-1371,389
1477,1477,4414,558,-1360,347
1721,1650,4611,610,-1320,265
1903,1449,4619,579,-1257,202
1913,1142,4654,496,-1209,209
1896,1252,4624,445,-1175,286
1854,1348,4460,403,-1150,329
1849,1352,4222,346,-1157,351
1895,1273,4240,233,-1187,375
1892,1115,4032,217,-1208,377
1945,1307,4292,202,-1254,395
2067,1555,4630,233,-1230,361
2209,1535,4649,287,-1163,283
2310,1306,4662,270,-1105,240
2380,1074,4688,186,-1050,258
2360,1024,4818,132,-983,296
2314,1275,4927,176,-895,308
2369,1580,4918,281,-798,264
2476,1733,5057,321,-723,203
2575,1930,5269,301,-650,163
2593,1995,5300,218,-569,130
2517,1689,5180,86,-498,102
2517,1689,5180,86,-498,102
2419,1265,5025,-24,-450,117
2384,1126,5001,-79,-416,168
2430,1210,4980,-46,-376,193
2477,1410,5025,-21,-332,187
2525,1552,4950,-1,-272,142
2568,1357,4726,-5,-220,80
2561,1048,4644,-23,-194,54
2544,974,4655,-40,-154,75
2538,1045,4567,-15,-85,89
2524,1164,4495,9,-20,88
2471,1305,4432,8,40,83
2382,1409,4291,-4,101,70
2263,1396,4066,-16,147,41
2135,1267,3874,-44,161,22
2071,1165,3797,-57,159,26
2015,1121,3651,-70,159,41
1968,1105,3525,-94,151,56
1963,1138,3548,-103,131,62
1960,1177,3557,-107,124,56
1930,1141,3550,-106,119,35
1914,1088,3543,-95,117,18
1883,1009,3495,-91,116,5
1850,953,3434,-86,108,2
1847,939,3389,-71,88,1
1863,937,3369,-67,58,1
1904,921,3470,-79,26,5
1931,852,3539,-75,13,9
1969,816,3531,-72,2,26
1999,846,3578,-81,-6,49
2015,914,3618,-82,-12,55
2045,974,3709,-59,-14,43
2077,991,3769,-22,-3,17
2087,950,3764,11,9,-6
2067,931,3750,26,19,-16
2034,973,3754,21,23,-10
2041,1008,3709,16,28,-4
2079,1005,3678,0,18,0
2135,997,3833,-27,5,7
2142,1005,3957,-36,18,18
2151,989,3850,-42,50,26
2119,943,3766,-61,62,35
2070,998,3825,-63,64,51
2055,1095,3765,-45,77,48
2032,1101,3655,-36,81,23
2002,1040,3659,-41,66,4
1984,1017,3691,-54,57,0
1961,1046,3649,-56,54,-8
1944,1048,3579,-57,41,-26
1939,974,3624,-75,16,-38
2001,921,3764,-88,2,-36
2070,882,3846,-91,14,-30
2063,892,3854,-99,39,-18
2025,931,3808,-92,66,-10
2002,953,3732,-56,81,-15
2040,918,3630,-49,81,-23
2031,771,3630,-74,65,-22
2000,742,3713,-94,51,2
1971,842,3695,-83,57,19
1920,930,3585,-55,57,6
1915,953,3530,-38,38,-20
1961,943,3514,-55,6,-41
2013,875,3592,-107,-28,-46
2047,772,3737,-160,-56,-38
2057,734,3837,-194,-57,-14
2056,802,3811,-230,-38,12
2054,888,3724,-260,-29,23
2058,867,3691,-302,-39,12
2064,748,3787,-330,-50,2
2079,671,3834,-341,-44,11
2079,671,3834,-341,-44,11
2044,679,3887,-361,-28,31
1994,655,3835,-284,-7,32
1985,641,3705,-252,5,42
1942,676,3620,-248,-3,58
1912,783,3688,-202,-27,61
1935,866,3787,-141,-38,39
1926,843,3787,-76,-30,3
1923,783,3721,-24,-18,-22
1966,733,3649,6,-15,-37
1988,671,3650,-7,-24,-35
2000,678,3678,-62,-31,-7
2033,700,3731,-116,-37,19


1892,1168,5947,96,362,-365
1904,1118,5821,111,511,-438
1864,852,5430,50,603,-466
1730,515,5122,-59,618,-429
1585,424,5044,-125,585,-346
1462,491,5053,-206,565,-265
1366,567,4976,-256,581,-235
1313,604,4795,-296,594,-239
1318,663,4794,-338,584,-266
1318,663,4794,-338,584,-266
1337,618,4926,-350,597,-335
1338,528,5162,-307,648,-424
1362,463,5286,-251,754,-501
1416,394,5224,-187,868,-567
1440,249,5122,-150,960,-603
1367,84,5099,-140,1022,-601
1247,-39,5088,-89,1074,-573
1147,-113,4954,-41,1127,-524
1048,-143,4659,-5,1160,-467
946,-22,4449,1,1139,-407
883,204,4493,-60,1096,-368
873,420,4560,-101,1077,-383
915,346,4613,-91,1080,-467
970,12,4546,-42,1100,-553
922,-221,4461,-97,1109,-538
884,-180,4471,-153,1100,-477
878,-151,4456,-180,1108,-459
830,-303,4379,-188,1131,-467
760,-416,4294,-162,1148,-451
690,-359,4317,-140,1164,-429
539,-310,4327,-97,1205,-448
383,-351,4089,-16,1255,-491
223,-448,3647,0,1264,-509
84,-568,3318,-40,1189,-493
10,-690,3305,-49,1061,-466
-31,-852,3451,-46,955,-430
0,-794,3588,-8,890,-375
55,-611,3643,0,862,-341
77,-616,3666,-46,852,-329
79,-706,3690,-71,844,-310
-36,-836,3524,-102,849,-272
-205,-832,3310,-129,827,-210
-302,-705,3141,-115,780,-166
-421,-598,2987,-115,718,-154
-515,-630,2907,-124,643,-169
-551,-790,2940,-100,555,-185
-533,-775,3065,-42,468,-165
-528,-662,3223,7,414,-154
-558,-561,3357,80,389,-172
-564,-537,3412,175,380,-208
-530,-535,3516,251,365,-221
-502,-426,3630,275,345,-190
-529,-384,3654,259,336,-158
-653,-491,3523,233,319,-124
-768,-443,3399,239,277,-71
-833,-279,3293,261,223,-31
-810,-151,3285,269,157,-17
-798,-87,3387,267,96,-23
-790,-40,3386,253,57,-27
-794,-81,3289,213,14,-27
-804,-217,3232,170,-42,-15
-802,-236,3253,185,-109,12
-774,-210,3173,192,-163,43
-719,-235,3058,179,-224,73
-706,-253,3077,150,-299,111
-744,-273,3112,137,-355,137
-809,-318,2915,155,-389,149
-842,-277,2755,212,-452,149
-764,-107,2851,320,-534,123
-639,45,2982,442,-597,63
-545,115,3081,517,-650,6
-406,165,3254,528,-710,-13
-300,40,3440,474,-752,-10
-279,-181,3465,401,-772,33
-328,-213,3350,346,-789,119
-395,33,3202,313,-818,190
-430,310,3070,307,-863,192
-420,490,3159,336,-931,140
-345,488,3315,391,-990,62
-345,488,3315,391,-990,62
-273,299,3354,436,-1038,-7
-181,230,3446,484,-1092,-28
-10,340,3589,512,-1142,-27
197,431,3838,518,-1183,-29
425,476,4073,493,-1200,-24
576,482,4305,395,-1189,3
603,490,4411,325,-1159,30
627,483,4370,287,-1118,44
607,406,4218,283,-1087,45
575,345,3968,279,-1091,59
586,434,3883,255,-1142,83
648,620,4000,245,-1206,84
770,487,4380,338,-1220,29
900,326,4227,504,-1198,12
1065,487,4141,522,-1222,59
1255,557,4426,428,-1260,96
1362,454,4746,325,-1249,123
1361,258,4718,256,-1193,168
1314,341,4609,218,-1146,240
1258,582,4441,218,-1110,277
1212,756,4298,223,-1096,259
1258,880,4295,232,-1099,212
1397,731,4215,220,-1095,155
1479,417,4254,164,-1112,143
1506,346,4426,124,-1126,185
1498,591,4515,111,-1109,226
1555,916,4639,111,-1072,223
1612,1001,4537,161,-1021,149
1689,857,4589,142,-988,81
1686,756,4484,174,-983,67
1688,1004,4611,136,-996,101
1756,1103,4527,98,-984,79
1840,995,4539,27,-998,52
1872,803,4814,-59,-1005,60
1796,599,4784,-90,-947,81
1754,618,4552,-83,-891,123
1862,755,4465,-70,-875,144
1978,819,4618,-75,-866,130
2045,813,4881,-87,-824,105
2074,764,4641,-65,-740,70
2036,727,4457,-65,-721,41
2045,722,4568,-143,-720,41
2096,652,4555,-233,-693,44
2079,514,4553,-306,-665,45
2013,361,4358,-337,-627,50
1949,297,4180,-342,-610,74
1985,470,4307,-285,-620,90
2166,588,4570,-195,-604,57
2338,585,4893,-99,-566,6
2488,513,5031,-46,-495,-17
2547,362,5050,-70,-419,0
2482,302,4951,-106,-357,56
2379,336,4635,-142,-302,117
2281,369,4307,-152,-288,149
2222,409,4271,-154,-299,160
2163,471,4339,-116,-290,146
2144,516,4108,-65,-255,110
2199,511,4137,-39,-264,78
2282,566,4481,-16,-262,57
2347,643,4531,12,-201,29
2362,625,4333,21,-141,3
2383,553,4199,-5,-122,-2
2463,457,4230,-61,-129,9
2510,331,4430,-103,-125,37
2501,343,4553,-118,-80,83
2443,494,4452,-113,-10,113
2381,655,4293,-104,45,103
2361,609,4129,-108,84,60
2321,413,4075,-100,103,23
2295,347,4087,-89,111,24
2295,347,4087,-89,111,24
2265,367,4028,-94,129,40
2185,401,3909,-118,144,50
2112,448,3832,-130,143,47
2073,400,3759,-122,136,26
2064,321,3754,-114,122,11
2108,306,3827,-118,116,13
2118,314,3862,-122,118,19
2104,328,3823,-118,127,20
2090,353,3771,-121,132,15
2068,330,3741,-129,126,6
2077,255,3817,-120,114,-3
2083,199,3903,-94,116,-4
2071,208,3853,-69,132,3
2066,236,3817,-63,132,13
2027,283,3772,-62,127,23
1989,309,3662,-69,116,24
1981,264,3594,-77,89,18
1992,214,3704,-86,57,18
2009,257,3886,-81,49,23
2035,339,3874,-59,74,18
2070,284,3690,-63,92,0
2080,139,3673,-96,71,-8
2048,136,3796,-146,48,10
2013,246,3828,-192,51,39
1975,347,3734,-193,55,35
1983,321,3668,-194,41,10
2002,131,3693,-225,27,-8
2008,-6,3786,-249,13,2
1998,-19,3966,-204,17,27
1973,70,3954,-110,55,42
1972,236,3880,-54,91,50
1987,345,3815,-4,110,26
1986,265,3793,28,114,-8
1957,153,3876,68,112,-28
1897,130,3828,125,125,-28
1844,162,3699,117,134,-4
1845,248,3653,94,117,14
1884,311,3725,86,88,21
1920,334,3775,69,73,16
1909,341,3835,48,63,10
1890,425,3851,38,59,4
1874,469,3769,12,61,-9
1859,412,3691,-17,46,-35
1871,357,3744,-46,14,-48
1891,345,3831,-54,-1,-58
1913,277,3848,-56,0,-70
1943,216,3833,-49,0,-71
1962,170,3811,-47,-5,-66
1992,172,3830,-55,-16,-53


1710,222,4732,-298,334,-195
1746,131,4802,-334,344,-176
1701,167,5040,-389,366,-133
1702,371,5180,-406,426,-103
1670,453,5008,-394,512,-134
1606,354,4865,-402,563,-185
1540,280,4792,-413,585,-221
1557,251,4852,-418,602,-249
1643,276,4973,-392,621,-281
1714,207,5104,-435,660,-302
1627,59,5158,-495,717,-303
1441,-41,5019,-522,781,-285
1303,-75,4754,-536,822,-257
1182,-96,4670,-549,811,-233
1172,-45,4833,-547,785,-217
1226,11,5062,-511,800,-234
1332,42,5316,-439,856,-281
1418,2,5668,-354,957,-349
1432,-71,5789,-281,1120,-415
1407,-249,5595,-243,1306,-463
1271,-508,5230,-193,1438,-479
1150,-641,4926,-183,1499,-431
1095,-658,4730,-160,1521,-369
951,-577,4429,-107,1496,-315
851,-459,4294,-126,1420,-261
773,-437,4218,-192,1344,-230
666,-491,4130,-248,1279,-214
552,-555,4005,-252,1223,-207
474,-586,3986,-312,1166,-191
465,-511,4142,-303,1131,-204
467,-454,4154,-191,1150,-276
467,-454,4154,-191,1150,-276
423,-517,4019,-139,1196,-357
423,-625,3865,-115,1215,-412
445,-961,3746,-104,1198,-435
384,-1235,3643,-144,1164,-380
239,-1343,3508,-207,1125,-271
97,-1269,3392,-232,1079,-157
-108,-1082,3176,-251,1024,-69
-181,-804,3088,-299,944,-15
-216,-663,3123,-293,870,-35
-288,-755,3054,-238,818,-101
-371,-939,2908,-195,765,-140
-392,-1026,2752,-143,696,-149
-377,-1087,2617,-153,614,-136
-325,-1179,2605,-189,521,-109
-305,-1398,2609,-203,444,-76
-442,-1543,2518,-206,386,-5
-621,-1393,2406,-151,321,86
-700,-1068,2264,-39,255,128
-790,-879,2058,54,181,101
-852,-772,2074,171,79,38
-788,-740,2295,302,-7,-38
-721,-790,2513,444,-65,-109
-680,-781,2610,547,-102,-139
-582,-828,2555,567,-135,-134
-565,-949,2655,559,-193,-103
-644,-797,2716,572,-247,-32
-660,-475,2614,571,-292,18
-662,-276,2514,560,-369,15
-670,-207,2504,511,-461,-3
-677,-273,2524,436,-558,-22
-657,-386,2636,390,-658,-15
-548,-474,2593,378,-733,6
-444,-683,2587,373,-795,24
-360,-719,2734,417,-857,59
-242,-320,2954,511,-901,90
-66,224,3306,603,-927,51
66,406,3555,645,-925,-52
160,27,3634,615,-931,-145
260,-457,3757,561,-974,-136
398,-758,3829,453,-1016,-26
458,-880,3983,360,-1055,108
489,-647,4230,353,-1072,232
557,-184,4370,409,-1046,285
645,170,4411,460,-1002,264
686,365,4471,478,-956,201
659,364,4524,461,-905,120
556,122,4434,441,-856,50
456,-184,4264,443,-832,21
386,-355,4156,483,-843,37
434,-250,4101,551,-877,77
590,-28,4178,597,-927,111
763,272,4406,590,-973,135
953,563,4466,533,-983,136
1107,488,4545,444,-999,88
1226,47,5086,424,-977,70
1205,-177,4801,545,-904,127
1136,259,4717,551,-885,234
1000,739,4572,485,-861,246
860,713,4246,433,-861,171
849,477,3892,386,-910,115
919,212,3757,305,-996,106
977,152,4042,277,-1087,133
1113,463,4200,275,-1112,165
1228,536,4149,260,-1103,146
1241,319,4058,242,-1106,123
1266,150,4070,226,-1112,139
1273,291,3940,255,-1115,171
1307,544,3964,285,-1134,163
1307,544,3964,285,-1134,163
1393,631,4032,318,-1144,109
1504,624,4130,329,-1146,52
1632,573,4045,337,-1143,6
1715,479,4091,294,-1175,-16
1725,305,4416,270,-1188,-29
1721,284,4248,350,-1148,-42
1813,317,4023,411,-1147,-52
2035,285,4291,430,-1194,-50
2180,235,4576,461,-1203,-29
2238,353,4719,447,-1170,23
2324,612,4984,457,-1088,65
2404,878,4475,513,-991,40
2367,948,4475,466,-983,-3
2289,839,4512,395,-952,-37
2267,568,4142,334,-907,-41
2169,209,3777,230,-926,6
2132,209,3705,117,-991,107
2241,440,3916,56,-1035,169
2375,674,4309,84,-1033,150
2498,856,4616,172,-966,80
2629,862,4710,231,-877,1
2783,702,4702,230,-804,-46
2812,396,4687,175,-758,-45
2898,334,4674,94,-720,19
2930,356,4682,69,-688,77
2970,506,4696,62,-650,119
3044,668,4866,68,-606,118
3089,688,5076,84,-528,92
3063,683,5024,106,-411,73
2976,717,4787,103,-306,70
2882,757,4592,93,-237,66
2788,734,4468,76,-186,59
2681,743,4335,59,-139,63
2649,847,4219,63,-100,66
2616,882,4107,60,-69,51
2548,865,4033,34,-50,40
2595,937,4009,-2,-39,37
2613,923,4127,-63,-25,27
2637,954,4142,-89,2,15
2618,881,3964,-129,39,-3
2579,755,3851,-187,49,-17
2554,685,3841,-235,45,-15
2536,658,3830,-258,46,-11
2520,588,3793,-278,52,-15
2516,462,3760,-300,53,-13
2515,401,3764,-325,44,6
2500,464,3835,-329,47,26
2521,481,3936,-298,68,19
2531,438,3928,-240,107,-9
2499,366,3870,-197,148,-31
2486,382,3869,-173,182,-28
2472,398,3756,-168,215,-28
2446,318,3630,-192,227,-26
2414,222,3561,-240,217,-3
2392,219,3519,-287,208,30
2362,273,3511,-324,198,53
2313,357,3541,-337,194,59
2275,434,3607,-310,194,40
2286,393,3653,-254,202,3
2265,254,3556,-215,214,-20
2164,139,3411,-221,209,-9
2111,179,3393,-206,174,24
2151,273,3387,-171,142,43
2160,265,3386,-161,109,39
2165,294,3482,-187,75,47
2185,356,3579,-208,62,50
2179,401,3534,-203,68,29
2189,389,3464,-217,61,5
2228,295,3478,-225,38,-18
2228,295,3478,-225,38,-18
2303,169,3520,-244,21,-31
2360,83,3611,-282,7,-15
2423,99,3722,-328,0,17
2430,144,3717,-379,7,47
2383,135,3594,-404,2,63
2355,134,3523,-425,-28,77
2362,133,3506,-422,-74,83
2350,137,3563,-399,-120,74
2327,140,3662,-338,-146,49
2337,158,3746,-268,-148,20
2363,185,3834,-233,-129,-6
2350,133,3832,-193,-93,-45
2335,36,3756,-149,-57,-76
2308,-72,3697,-108,-33,-91
2282,-155,3685,-67,-14,-84
2268,-158,3677,-46,0,-48
2327,-130,3733,-54,19,-1
2345,-122,3763,-67,46,39
2258,-94,3670,-56,75,72
2186,-14,3539,-46,83,105
2146,45,3417,-45,77,121
2069,32,3334,-34,52,121
2025,39,3337,-22,10,120
2011,110,3397,-14,-18,122
2026,273,3509,2,-36,107
2074,405,3662,44,-30,58
2173,409,3687,79,-3,-11
2229,235,3674,50,22,-66
2192,30,3622,41,34,-77


977,-1108,3993,245,1159,-268
893,-1143,4010,224,1144,-207
893,-1143,4010,224,1144,-207
822,-1001,3978,244,1138,-154
763,-766,4005,285,1138,-148
721,-566,3900,349,1144,-201
653,-571,3817,376,1127,-282
531,-612,3770,365,1089,-336
455,-553,3772,288,1038,-352
587,-619,3919,239,985,-378
639,-849,4103,235,963,-392
667,-859,4071,195,978,-347
653,-862,3936,120,996,-294
484,-983,3744,40,996,-239
300,-927,3637,-53,962,-150
223,-740,3662,-100,911,-92
181,-564,3692,-108,877,-88
122,-501,3738,-100,858,-130
92,-671,3791,-56,853,-193
8,-853,3707,12,862,-225
-89,-873,3519,58,859,-218
-105,-805,3518,132,820,-223
16,-788,3670,210,783,-248
90,-897,3812,222,768,-256
28,-886,3901,183,765,-215
-47,-812,3868,174,767,-179
-135,-751,3832,167,756,-155
-223,-589,3933,207,734,-150
-291,-483,3996,310,732,-186
-373,-563,3893,372,736,-232
-444,-574,3737,389,710,-239
-433,-548,3789,397,646,-226
-436,-523,3916,402,592,-215
-519,-568,3728,375,561,-197
-562,-665,3538,327,496,-167
-528,-689,3595,299,409,-133
-489,-401,3920,263,331,-92
-387,-117,4129,273,313,-103
-393,-458,4102,274,337,-172
-514,-877,4071,309,361,-183
-608,-763,3884,369,374,-123
-631,-537,3854,422,366,-103
-643,-655,3964,537,368,-155
-689,-870,3978,654,390,-166
-665,-597,3901,735,409,-127
-717,-426,3649,770,411,-131
-760,-463,3593,748,360,-140
-681,-578,3735,764,294,-138
-667,-645,3713,765,258,-105
-720,-606,3650,757,224,-52
-741,-466,3628,756,179,-3
-692,-152,3753,760,131,32
-704,98,3769,751,112,16
-744,79,3586,695,97,-28
-733,-46,3386,628,54,-58
-752,-236,3406,551,-14,-60
-748,-413,3461,531,-63,-35
-788,-473,3347,526,-89,17
-845,-219,3154,513,-126,78
-874,114,3000,524,-179,80
-854,208,3017,563,-244,8
-796,101,3042,615,-297,-73
-745,140,3101,607,-350,-94
-680,365,3143,580,-408,-83
-655,365,3181,509,-461,-80
-728,183,3106,395,-504,-55
-772,263,2989,329,-559,3
-716,387,2746,286,-619,21
-750,234,2596,220,-709,5
-729,166,2684,195,-815,6
-628,186,2836,200,-906,8
-462,373,3223,258,-980,-6
-277,544,3507,336,-1006,-58
-277,544,3507,336,-1006,-58
-129,336,3538,336,-1001,-105
-34,172,3663,288,-1016,-85
58,183,3733,232,-1032,-33
137,81,3858,187,-1047,7
209,194,4053,182,-1057,56
262,405,4109,175,-1047,82
304,539,4230,193,-1039,66
350,453,4285,217,-1015,29
296,303,4258,221,-996,15
301,324,4196,230,-987,38
254,279,4043,209,-991,64
208,192,3826,170,-1026,108
282,173,3746,140,-1092,147
348,251,3976,127,-1157,169
513,477,4164,182,-1178,154
745,500,4270,241,-1172,103
907,464,4596,266,-1160,77
945,438,4746,291,-1100,81
888,393,4455,261,-1030,116
919,270,4204,195,-1028,161
912,52,4336,113,-1061,214
827,131,4409,104,-1063,278
754,520,4222,173,-1053,303
789,874,4036,191,-1083,270
887,712,4210,208,-1125,182
969,264,4061,329,-1148,119
1148,328,4209,354,-1199,153
1423,675,4773,392,-1226,172
1631,769,5184,431,-1166,146
1727,827,5154,417,-1063,144
1750,707,4893,319,-984,169
1667,351,4654,151,-941,231
1530,179,4475,34,-921,328
1422,463,4454,59,-916,392
1379,860,4372,196,-908,346
1493,1082,4455,331,-904,223
1646,906,4489,435,-901,95
1772,735,4838,418,-906,65
1805,787,4702,394,-867,97
1814,822,4588,294,-848,137
1756,782,4632,233,-833,157
1751,842,4482,223,-791,161
1788,773,4415,218,-764,138
1860,712,4483,217,-751,127
1930,754,4559,204,-739,140
2008,928,4667,201,-718,150
2065,958,4649,179,-679,131
2133,959,4670,173,-654,112
2276,1055,4844,165,-632,97
2423,989,5057,140,-584,74
2485,1013,5258,113,-508,77
2460,1058,5169,93,-408,74
2387,926,4843,50,-330,67
2345,789,4767,-15,-311,92
2323,660,4725,-56,-296,124
2341,697,4696,-87,-279,159
2370,854,4860,-95,-257,171
2400,1014,4923,-67,-197,145
2388,1073,4845,-44,-125,94
2374,1034,4701,-43,-60,48
2363,785,4581,-72,-13,18
2250,577,4529,-128,29,46
2079,612,4220,-174,77,108
1920,697,3914,-202,92,150
1806,759,3724,-199,68,160
1741,746,3672,-185,34,144
1758,801,3688,-138,6,115
1787,780,3732,-103,-2,77
1822,790,3791,-75,0,45
1822,790,3791,-75,0,45
1869,758,3747,-69,16,12
1874,582,3759,-86,21,-2
1879,552,3813,-95,26,20
1927,538,3697,-132,34,47
1912,493,3793,-191,16,74
1867,622,3915,-203,13,103
1864,755,3765,-183,24,92
1861,590,3674,-186,10,47
1881,415,3754,-179,-18,36
1917,356,3835,-167,-26,45
1929,359,3841,-139,-21,57
1946,445,3881,-103,-21,66
1969,478,3864,-88,-12,58
1967,409,3812,-84,-8,46
1946,376,3875,-66,-17,50
1942,425,3903,-34,-15,53
1951,484,3877,-18,-6,49
1948,541,3906,-15,-6,38
1949,607,3943,-12,0,24
1949,599,3925,-11,8,3
1954,544,3917,-22,14,-4
1964,513,3949,-37,15,2
1952,507,3926,-42,19,9
1937,553,3896,-53,22,18
1922,571,3858,-60,19,14
1897,556,3812,-59,12,5
1914,559,3833,-57,0,3
1964,527,3843,-40,-11,0
1994,451,3852,-42,-20,3
1984,460,3889,-53,-30,17
1983,565,3899,-62,-40,33
1974,609,3863,-72,-50,27
1973,585,3830,-112,-61,19
1969,540,3787,-171,-80,17
1918,508,3772,-219,-101,19
1894,533,3703,-230,-117,14
1847,421,3630,-297,-131,1
1809,312,3765,-322,-147,-3
1771,380,3986,-214,-137,-23
1829,509,4199,-92,-85,-52
1933,529,4089,-15,2,-93
1957,372,3807,16,56,-133
1924,165,3753,-27,47,-111
1926,157,3801,-56,33,-55
1959,241,3791,-55,30,-15
1971,292,3852,-43,26,2
1988,380,3916,-8,23,9
2014,464,3940,-21,32,12
2020,476,3925,-67,42,4
1997,438,3936,-81,49,-15
1967,375,3934,-57,54,-30
1941,371,3927,-7,56,-38
1947,391,3931,47,55,-50
1946,436,3905,57,62,-48
1934,431,3871,24,63,-45
1918,368,3861,-6,58,-40


962,-594,4463,-315,965,-233
871,-466,4182,-382,951,-204
811,-493,3999,-445,906,-223
807,-596,4116,-452,851,-272
825,-681,4372,-406,838,-329
817,-658,4424,-361,883,-374
803,-777,4202,-346,933,-417
734,-1098,4047,-349,935,-434
646,-1323,4023,-330,915,-396
610,-1291,4104,-314,887,-313
604,-1049,4134,-303,876,-240
504,-913,4091,-314,876,-222
406,-934,3998,-311,867,-238
327,-1088,3796,-284,852,-265
295,-1183,3741,-238,811,-283
311,-1159,3960,-183,774,-296
347,-1001,4240,-111,779,-313
376,-880,4273,-72,833,-347
312,-951,4083,-64,873,-387
228,-1093,4000,-69,872,-400
198,-1204,3959,-55,857,-383
152,-1198,4007,-76,831,-327
106,-1148,4011,-46,817,-292
50,-1160,3904,-24,806,-271
60,-1087,3907,-17,773,-241
89,-875,4014,-20,739,-216
55,-616,4114,-38,722,-230
32,-656,4103,-27,729,-308
-5,-941,4010,4,734,-372
-29,-1121,3936,14,706,-364
46,-1363,4095,86,669,-319
57,-1484,4103,115,667,-215
-12,-1216,3877,51,670,-76
-107,-906,3736,-9,647,-7
-215,-794,3785,-1,618,-19
-305,-980,3860,117,611,-64
-331,-980,3694,206,629,-70
-349,-846,3632,213,624,-73
-384,-822,3713,279,613,-111
-438,-919,3616,357,623,-149
-473,-1092,3298,402,610,-148
-486,-1133,3121,363,536,-85
-475,-968,3178,299,435,-10
-489,-852,3266,215,353,28
-548,-752,3385,173,294,33
-548,-752,3385,173,294,33
-612,-573,3456,165,262,9
-640,-444,3355,168,246,-45
-662,-562,3298,171,213,-126
-663,-757,3294,186,161,-168
-663,-898,3202,160,107,-158
-595,-842,3316,103,33,-109
-521,-675,3530,38,-16,-68
-545,-755,3537,-7,-21,-61
-630,-1049,3416,5,-18,-59
-726,-1097,3293,46,-34,-15
-728,-759,3265,107,-69,30
-709,-498,3155,121,-102,17
-685,-536,3069,95,-155,-27
-667,-692,2971,62,-223,-54
-663,-872,2771,36,-308,-48
-598,-917,2925,6,-401,-7
-520,-819,2934,34,-452,21
-461,-636,2970,60,-497,29
-421,-561,3062,71,-527,2
-405,-759,3050,87,-543,-42
-460,-914,3082,111,-572,-53
-516,-740,3191,161,-602,-41
-504,-539,3192,234,-624,-60
-439,-439,3231,282,-667,-91
-324,-360,3454,276,-720,-103
-221,-492,3566,252,-746,-111
-150,-712,3569,206,-771,-79
-64,-638,3745,165,-810,-5
-22,-372,3831,150,-824,40
0,-183,3694,120,-831,40
-4,-247,3658,61,-863,10
-64,-425,3642,29,-892,-19
-153,-414,3532,35,-916,-22
-128,-215,3472,68,-959,-36
19,-259,3609,74,-1019,-82
167,-380,3952,66,-1069,-104
301,-444,3986,61,-1077,-101
459,-585,3901,10,-1094,-78
546,-873,3970,-42,-1131,-41
560,-967,3951,-61,-1150,25
632,-705,3866,-46,-1169,81
714,-572,3943,-29,-1193,62
781,-728,4017,2,-1199,8
786,-848,4208,60,-1199,-20
864,-614,4333,154,-1176,-32
937,-453,4386,224,-1147,-76
973,-542,4346,274,-1120,-133
944,-806,4233,298,-1110,-153
975,-935,4070,336,-1126,-118
1021,-714,4044,367,-1164,-60
1142,-320,4181,394,-1201,-40
1280,-172,4210,364,-1227,-71
1436,-305,4321,321,-1260,-123
1508,-627,4711,315,-1257,-160
1543,-986,4385,479,-1215,-141
1603,-913,4251,512,-1236,-26
1530,-624,4249,420,-1252,79
1387,-286,4110,399,-1257,102
1343,10,4011,456,-1272,36
1507,-40,3934,501,-1299,-82
1755,-383,4258,470,-1344,-156
1954,-594,4668,459,-1345,-145
2109,-513,4880,479,-1279,-89
2161,-193,4897,549,-1191,-64
2238,241,5082,601,-1115,-91
2268,226,5094,628,-1010,-177
2230,3,4648,644,-959,-212
2185,-198,4437,494,-994,-150
2185,-198,4437,494,-994,-150
2182,-425,4413,306,-1062,-47
2185,-588,4449,171,-1111,55
2215,-466,4491,107,-1122,137
2285,-219,4602,164,-1101,134
2458,47,4928,314,-1053,59
2700,264,5318,450,-947,-40
2845,205,5147,520,-797,-134
2823,-46,4931,482,-718,-153
2745,-146,4931,368,-667,-79
2627,-150,4726,278,-608,8
2511,-131,4532,213,-569,82
2468,65,4568,183,-550,126
2487,411,4767,206,-513,119
2552,559,4793,238,-443,54
2598,387,4665,229,-374,-17
2608,111,4652,187,-331,-40
2623,44,4633,162,-288,-9
2662,159,4590,139,-240,29
2651,255,4532,107,-192,47
2624,284,4394,73,-154,51
2622,265,4300,40,-135,46
2625,252,4282,7,-121,46
2655,214,4252,-27,-104,45
2622,92,4183,-72,-86,45
2587,29,4126,-104,-65,58
2613,107,4141,-119,-38,68
2580,132,4153,-121,4,54
2505,83,4029,-108,55,27
2456,1,3848,-112,85,17
2393,-27,3849,-110,86,24
2337,68,3834,-85,93,31
2282,53,3691,-84,100,23
2239,-35,3634,-96,84,19
2227,-44,3691,-111,70,29
2203,2,3665,-114,73,31
2173,12,3643,-108,75,15
2188,-64,3619,-98,78,-4
2195,-168,3644,-92,77,-11
2189,-163,3651,-86,79,0
2193,-104,3612,-77,80,15
2213,-95,3579,-74,70,19
2234,-157,3616,-85,53,20
2270,-121,3715,-86,44,28
2260,-111,3662,-92,50,28
2235,-161,3599,-93,44,24
2212,-154,3629,-87,31,24
2201,-92,3617,-72,27,17
2198,-115,3605,-55,26,-3
2209,-173,3676,-44,22,-15
2237,-215,3684,-47,26,-10
2220,-297,3673,-67,25,7
2228,-225,3761,-71,21,40
2258,-70,3789,-46,31,51
2270,-14,3792,-27,43,33
2257,-77,3795,-26,56,15
2244,-151,3749,-24,65,14
2208,-145,3644,-5,63,20
2182,-108,3620,6,48,24
2191,-71,3681,11,32,18
2210,-51,3732,7,31,6
2194,-63,3753,3,38,-2
2203,-36,3751,5,44,-6
2219,-71,3764,0,45,-12
2203,-113,3763,-13,42,-3
2198,-87,3736,-18,38,9
2205,-73,3680,-29,34,10
2212,-114,3714,-36,24,4
2240,-132,3758,-29,24,0
2251,-155,3764,-26,34,-2
2251,-155,3764,-26,34,-2
2215,-126,3783,-17,41,0
2181,-67,3690,-5,55,-4
2147,-90,3604,-7,49,-18
2105,-122,3598,-15,30,-26
2114,-124,3601,-10,13,-22
2136,-168,3580,-19,0,-21
2184,-242,3610,-33,-15,-11
2220,-275,3739,-37,-21,1
2223,-180,3795,-23,-6,15
2222,-115,3699,-6,13,8
2201,-177,3654,4,15,-7
2198,-199,3688,7,9,-9
2244,-151,3749,18,6,-5
2238,-150,3802,34,12,-11
2194,-139,3754,42,26,-11


1869,83,5327,242,407,-326
1900,58,5480,262,468,-338
1815,144,5426,210,560,-332
1742,234,5238,194,645,-363
1645,117,5158,210,699,-428
1512,51,5160,235,739,-466
1512,51,5160,235,739,-466
1398,106,5051,208,788,-472
1363,175,4884,183,818,-491
1394,93,4738,156,815,-524
1429,-108,4851,94,783,-531
1393,-145,5091,50,775,-491
1422,14,5076,31,821,-449
1399,-3,4980,-4,868,-440
1370,0,4941,-15,899,-438
1325,9,4866,-34,948,-440
1182,-25,4750,-46,1002,-454
1046,-38,4598,-26,1045,-480
926,-113,4399,-7,1074,-515
840,-264,4174,9,1074,-538
820,-334,4086,4,1034,-522
830,-143,4204,-30,987,-483
818,50,4305,-70,968,-480
863,-51,4145,-100,965,-519
868,-432,4032,-132,945,-534
835,-668,4075,-163,921,-488
716,-543,4120,-183,923,-420
589,-222,4029,-157,942,-396
486,-72,3820,-96,953,-453
408,-212,3679,-59,925,-535
365,-369,3721,-59,873,-577
336,-532,3770,-29,838,-594
346,-566,3804,9,812,-584
453,-484,4063,72,796,-575
530,-463,4285,143,827,-577
478,-487,4301,144,892,-547
382,-666,4077,135,948,-493
297,-978,3806,97,959,-399
198,-916,3746,29,921,-248
85,-464,3665,27,890,-152
5,-118,3522,75,849,-176
-18,-34,3437,91,786,-256
38,-150,3505,69,711,-336
67,-498,3658,49,655,-396
83,-775,3794,58,629,-388
75,-811,3731,79,629,-333
-63,-743,3557,47,616,-263
-130,-577,3452,5,562,-192
-188,-567,3430,-11,501,-164
-306,-653,3223,-40,455,-140
-438,-677,2965,-38,378,-103
-519,-649,2907,7,275,-85
-530,-498,2873,36,190,-83
-530,-434,2827,55,121,-121
-496,-544,2818,115,47,-177
-391,-789,2809,147,-18,-197
-331,-1062,2903,129,-93,-147
-348,-1083,3109,103,-152,-37
-451,-777,3108,124,-176,57
-496,-320,2979,171,-204,84
-484,-164,2845,216,-257,27
-481,-439,2815,215,-333,-38
-456,-695,2976,201,-414,-45
-389,-658,3159,242,-467,-7
-282,-459,3145,298,-491,24
-174,-379,3103,322,-527,37
-81,-411,3176,308,-575,56
-16,-452,3295,291,-606,91
6,-425,3341,296,-618,123
-13,-214,3396,345,-617,129
-29,16,3320,427,-610,87
24,-110,3251,495,-636,19
52,-377,3431,530,-685,13
49,-198,3509,495,-719,101
57,47,3373,404,-751,173
11,41,3434,326,-809,202
15,-11,3404,325,-854,207
15,-11,3404,325,-854,207
91,-103,3289,354,-905,203
223,-93,3487,375,-977,216
394,86,3740,422,-1021,222
512,348,3890,487,-1033,196
607,525,3982,496,-1031,153
674,405,4147,450,-1026,113
816,149,4182,404,-1004,116
746,-155,3999,337,-992,177
541,-234,3686,256,-1005,295
507,201,3557,240,-1060,390
567,619,3780,289,-1120,363
717,806,4039,418,-1150,240
955,865,4241,508,-1151,123
1108,705,4224,521,-1138,51
1205,449,4274,444,-1147,52
1243,340,4266,345,-1153,119
1159,200,4002,223,-1152,194
1084,-49,4101,169,-1154,261
1027,-71,3761,376,-1150,314
1096,525,3641,478,-1199,371
1222,1093,3940,459,-1248,328
1338,1268,4271,488,-1260,197
1432,1084,4254,530,-1236,63
1545,538,3935,504,-1224,0
1657,-126,3726,367,-1269,70
1722,-365,3774,194,-1342,264
1728,126,4097,125,-1384,440
1766,913,4422,213,-1355,453
1871,1386,4594,406,-1280,289
2031,1302,4527,537,-1201,82
2177,790,4323,545,-1175,-34
2299,413,4544,425,-1204,0
2359,305,4501,323,-1201,102
2371,340,4481,183,-1201,216
2382,519,4409,138,-1217,283
2461,840,4742,116,-1238,292
2554,891,5051,120,-1177,225
2609,723,4719,186,-1084,142
2746,668,4750,128,-1068,134
2857,614,5105,48,-1038,148
2911,570,5249,37,-944,155
2921,543,5157,47,-831,173
2965,551,5086,34,-734,203
2945,566,5087,14,-647,225
2882,571,4970,0,-554,240
2797,556,4814,-14,-474,256
2748,775,4712,-29,-410,273
2711,1048,4623,-53,-376,242
2668,1031,4861,-75,-343,170
2625,885,4834,-99,-267,112
2627,745,4637,-121,-206,94
2656,590,4579,-180,-179,112
2691,572,4651,-241,-154,159
2687,640,4609,-265,-101,193
2610,637,4287,-269,-45,203
2487,637,3938,-213,-31,191
2458,626,3704,-114,-57,149
2438,546,3721,-50,-102,105
2499,690,3976,-14,-135,80
2635,844,4240,0,-126,46
2717,788,4354,14,-91,1
2728,609,4278,-9,-29,-20
2653,393,4090,-70,19,-3
2629,346,3982,-126,43,50
2625,326,3923,-192,62,101
2541,278,3868,-252,87,134
2408,336,3749,-256,119,147
2322,431,3615,-222,144,130
2294,412,3555,-183,151,89
2294,412,3555,-183,151,89
2257,293,3496,-147,150,51
2229,234,3429,-134,145,40
2295,193,3457,-124,134,38
2345,124,3609,-113,124,55
2347,181,3651,-127,137,89
2274,243,3466,-137,155,108
2152,232,3270,-132,143,105
2063,195,3150,-119,105,90
2058,225,3190,-93,57,74
2098,293,3341,-58,22,48
2172,270,3453,-17,14,11
2226,233,3585,6,18,-7
2210,238,3644,47,32,-15
2204,325,3622,86,41,-15
2283,340,3628,109,30,-27
2381,238,3717,87,11,-21
2439,163,3852,54,8,4
2439,164,3857,32,28,37
2402,210,3785,32,47,56
2336,267,3687,41,58,58
2295,356,3609,42,55,51
2310,436,3629,46,37,25
2357,418,3690,40,23,-7
2375,330,3735,32,21,-31
2408,281,3755,14,24,-32
2457,218,3805,-11,32,-20
2458,173,3867,-37,48,0
2418,209,3865,-56,72,31
2359,283,3779,-65,95,48
2296,304,3605,-59,104,42
2274,339,3575,-47,85,27
2287,391,3693,-44,68,6
2282,357,3702,-37,73,-27
2254,258,3696,-31,77,-55
2241,224,3702,-29,73,-50
2245,228,3597,-23,71,-40
2276,138,3499,-43,58,-34
2247,60,3558,-69,32,-11
2203,109,3636,-86,25,23
2185,234,3598,-68,34,32
2186,271,3559,-43,37,14
2186,227,3603,-26,28,-4
2203,157,3629,-5,28,-19
2220,104,3688,10,30,-13
2208,142,3708,31,41,0
2188,213,3641,38,55,7
2159,257,3543,23,54,3
2127,255,3543,10,36,-6
2117,255,3579,14,17,-18
2135,298,3619,19,6,-27
2153,335,3612,20,0,-40
2199,282,3569,13,-9,-56


2465,225,5336,434,154,-263
2633,264,5689,490,276,-332
2742,270,5838,541,430,-413
2733,222,5800,546,581,-471
2693,108,5520,486,697,-493
2662,-3,5207,351,737,-467
2626,-212,4951,217,709,-425
2568,-463,4909,61,650,-342
2507,-515,5066,-66,606,-223
2409,-339,5235,-106,619,-133
2359,15,5351,-61,695,-120
2344,285,5368,33,816,-211
2366,323,5460,143,957,-352
2338,184,5445,335,1120,-523
2215,18,5205,475,1270,-638
2054,-109,4751,500,1377,-680
1879,-242,4449,515,1407,-690
1796,-260,4284,481,1397,-651
1757,-286,4027,422,1382,-607
1781,-474,3914,272,1339,-536
1748,-428,4260,178,1282,-438
1642,-59,4588,151,1300,-359
1528,373,4608,159,1386,-356
1415,630,4441,165,1475,-430
1307,646,4210,182,1525,-550
1141,319,3998,194,1533,-668
987,-94,3919,217,1505,-714
858,-246,3680,189,1463,-659
842,-63,3684,118,1382,-562
987,120,3745,136,1314,-539
987,120,3745,136,1314,-539
1172,-163,3639,108,1287,-555
1228,-603,3648,42,1244,-512
1157,-577,3888,-87,1225,-377
1048,-171,3952,-186,1272,-271
882,100,3776,-188,1354,-294
632,73,3510,-92,1416,-415
407,-184,3267,14,1446,-530
252,-492,3038,76,1434,-576
95,-724,2722,67,1375,-540
-34,-656,2610,-54,1258,-428
-122,-400,2705,-146,1122,-337
-185,-371,2651,-159,1019,-320
-97,-583,2538,-196,922,-312
-45,-836,2755,-270,823,-271
-87,-933,2942,-280,781,-206
-156,-801,2796,-233,779,-138
-278,-682,2512,-196,757,-110
-411,-612,2188,-199,682,-89
-483,-571,1909,-225,554,-71
-547,-714,1838,-253,396,-76
-607,-819,1968,-251,241,-67
-650,-689,2147,-212,126,-51
-564,-430,2364,-81,43,-81
-386,-428,2606,53,7,-165
-236,-573,2786,127,0,-209
-261,-735,2755,111,1,-174
-448,-793,2537,47,-15,-81
-655,-703,2271,0,-80,18
-786,-578,2055,-8,-188,81
-842,-588,1942,4,-314,91
-851,-688,2023,56,-443,70
-759,-547,2281,168,-545,45
-570,-312,2425,280,-610,0
-382,-368,2507,322,-664,-48
-252,-612,2715,320,-729,-44
-110,-702,2842,333,-776,22
-41,-678,2794,319,-806,122
-27,-418,2747,294,-851,219
-75,-117,2711,281,-894,246
-166,39,2691,326,-940,195
-134,126,2698,414,-1006,107
102,70,2811,474,-1090,26
259,-238,3070,453,-1171,-7
433,-313,3360,415,-1219,38
567,-310,3573,401,-1225,97
545,-144,3747,458,-1204,139
574,289,3734,557,-1165,148
647,521,3689,625,-1142,95
806,414,3881,653,-1152,29
911,149,3963,581,-1149,38
871,-31,3948,451,-1149,126
798,-11,3718,340,-1150,235
719,159,3399,306,-1183,292
808,510,3601,331,-1261,291
1084,703,3929,379,-1293,223
1265,547,4268,381,-1295,141
1285,191,4808,490,-1235,100
1253,77,4208,731,-1119,113
1237,323,3877,796,-1114,157
1273,806,4055,754,-1151,183
1367,1045,4192,687,-1153,139
1379,988,4267,676,-1148,74
1418,1009,4184,655,-1146,49
1457,1010,4059,538,-1162,50
1536,816,4122,435,-1207,52
1599,521,4130,333,-1238,92
1619,327,3933,239,-1259,183
1627,398,3970,189,-1293,273
1627,398,3970,189,-1293,273
1770,665,4194,249,-1300,294
1949,1002,4375,333,-1267,260
2137,1340,4801,399,-1209,178
2276,1317,4710,438,-1093,57
2310,1053,4401,358,-1033,-7
2317,685,4528,191,-1024,-1
2309,415,4451,107,-981,43
2273,440,4313,70,-955,116
2272,679,4434,46,-936,171
2306,901,4492,42,-879,167
2333,1094,4567,39,-812,129
2381,1158,4565,50,-726,50
2389,873,4335,30,-647,-27
2422,529,4183,-17,-622,-31
2392,311,4234,-90,-612,29
2341,382,4038,-118,-579,113
2261,550,3908,-62,-578,143
2133,616,3953,-40,-559,134
2085,628,3745,23,-514,100
2054,457,3341,54,-491,65
1990,337,3209,74,-538,61
2077,552,3289,135,-596,71
2336,778,3510,181,-640,38
2588,847,3969,210,-659,-25
2779,772,4335,228,-615,-75
2903,674,4459,212,-532,-83
2994,664,4540,182,-454,-57
3018,652,4628,148,-385,-18
2990,755,4731,99,-318,37
2976,936,4770,74,-242,79
2924,929,4543,54,-157,77
2771,777,4279,13,-103,70
2674,696,4152,-12,-78,83
2676,748,4063,-35,-57,100
2690,827,4079,-60,-38,105
2744,925,4192,-72,-10,95
2760,861,4166,-88,45,66
2638,650,3985,-108,110,50
2471,540,3746,-162,152,87
2349,619,3555,-220,168,138
2275,751,3408,-232,165,152
2253,789,3336,-221,145,129
2280,706,3319,-195,115,97
2279,582,3307,-201,92,78
2258,557,3359,-210,76,78
2281,580,3415,-186,79,71
2289,538,3438,-154,96,47
2279,504,3431,-132,120,27
2267,490,3437,-120,140,17
2306,514,3408,-104,151,11
2313,447,3338,-122,153,2
2257,385,3325,-161,143,10
2197,407,3272,-200,133,30
2126,347,3081,-232,117,31
2108,242,2961,-271,76,34
2144,203,3076,-281,21,46
2204,246,3286,-253,0,51
2257,324,3421,-207,9,44
2270,406,3410,-190,44,30
2267,387,3363,-193,70,9
2215,294,3311,-189,82,-8
2141,223,3232,-178,80,-8
2114,235,3201,-166,61,7
2104,331,3272,-154,35,20
2113,398,3367,-133,20,13
2155,376,3381,-84,17,-6
2174,257,3304,-47,13,-17
2189,164,3373,-11,-1,-7
2222,154,3439,16,-3,15
2222,154,3439,16,-3,15
2218,194,3380,21,5,43
2215,333,3397,24,0,64
2217,498,3514,20,3,60
2207,554,3487,26,23,23
2192,458,3335,15,30,-16
2183,327,3311,-14,7,-30
2207,298,3450,-36,-16,-21
2247,356,3540,-46,-15,-8
2259,343,3492,-47,0,-9
2237,279,3443,-30,3,-9
2224,261,3404,-1,3,0
2241,265,3355,-1,2,9
2241,299,3404,2,-5,17
2258,390,3500,11,-8,19
2275,430,3544,18,6,4
2258,412,3542,22,25,-19
2252,347,3494,10,40,-31
2224,292,3416,-10,45,-24
2175,282,3322,-34,36,-9
2164,313,3273,-53,9,2
2229,368,3321,-77,-21,11
2266,347,3398,-102,-45,6
2286,317,3463,-130,-58,8
2316,264,3468,-163,-57,10
2316,214,3483,-179,-51,15
2332,240,3582,-160,-43,18
2320,277,3632,-128,-12,12
2279,269,3538,-130,29,7
2257,242,3431,-133,51,3
2227,239,3337,-136,51,2


1027,-477,3733,399,1297,-231
867,-319,3523,330,1239,-250
809,-107,3602,327,1158,-323
902,26,3802,378,1104,-456
1189,-225,3775,388,1093,-597
1380,-979,3635,283,1076,-653
1348,-1587,3709,127,1037,-538
1196,-1528,3951,26,1020,-314
1000,-921,4040,-9,1065,-130
795,-358,3852,29,1132,-94
637,-230,3543,102,1165,-175
572,-406,3484,169,1145,-277
503,-593,3405,235,1123,-345
447,-635,3421,269,1089,-367
428,-532,3647,316,1066,-382
330,-502,3611,461,1083,-430
279,-518,3342,487,1091,-459
279,-638,3306,420,1053,-464
357,-905,3347,365,1009,-440
337,-1125,3468,267,978,-348
204,-933,3698,230,974,-231
92,-629,3666,261,1021,-177
-55,-416,3351,278,1056,-178
-261,-345,3017,316,1023,-224
-353,-332,3085,410,932,-290
-330,-340,3382,473,857,-335
-299,-412,3470,479,824,-349
-275,-564,3574,494,795,-342
-250,-475,3794,566,767,-312
-171,-301,3820,620,779,-296
-137,-347,3678,608,784,-288
-124,-392,3616,512,750,-233
-165,-393,3786,380,715,-165
-286,-408,3771,332,728,-123
-481,-379,3442,326,731,-89
-642,-130,3184,368,674,-64
-709,86,3091,369,586,-88
-702,85,3169,364,488,-157
-636,36,3429,372,400,-218
-560,0,3693,393,353,-254
-540,-229,3741,431,354,-280
-483,-522,3660,459,360,-252
-396,-690,3636,441,352,-160
-463,-542,3847,452,339,-46
-550,-51,3699,465,366,39
-694,127,3265,365,369,37
-826,-41,3079,320,292,-1
-876,-183,3116,319,194,-20
-900,-262,3091,327,119,-23
-890,-170,3115,328,49,-16
-839,38,3188,319,-12,-18
-744,116,3208,302,-64,-42
-623,-109,3310,259,-109,-64
-607,-367,3480,231,-125,-40
-691,-366,3366,254,-110,19
-795,-269,2969,266,-106,71
-837,-222,2715,248,-160,105
-863,-188,2743,228,-252,125
-894,-39,2674,253,-330,129
-927,93,2517,294,-411,103
-867,130,2473,314,-511,64
-749,-47,2511,293,-610,39
-669,-139,2706,256,-701,69
-590,186,2894,229,-762,125
-525,443,2893,205,-801,131
-516,338,2833,183,-857,102
-460,154,2927,167,-936,100
-278,202,3297,195,-1007,121
-144,558,3657,252,-1024,130
-107,918,3705,274,-996,105
-99,898,3452,269,-994,41
-99,898,3452,269,-994,41
-101,489,3336,169,-1045,15
-51,54,3462,58,-1109,70
-26,-48,3582,12,-1145,174
33,379,3654,56,-1159,249
110,771,3779,130,-1163,219
239,913,3883,206,-1163,125
390,774,3935,230,-1164,39
458,492,3911,187,-1165,14
512,317,3847,121,-1172,54
561,264,3811,55,-1189,117
533,284,3849,5,-1209,178
542,328,3795,0,-1227,228
597,312,3644,0,-1262,256
667,299,3692,-54,-1309,287
719,342,3788,-70,-1334,296
749,409,3825,-37,-1339,269
827,496,3967,41,-1338,208
979,516,4020,163,-1321,129
1116,418,3999,206,-1310,86
1230,371,4107,193,-1316,91
1329,518,4387,166,-1307,115
1435,334,4292,255,-1264,103
1522,422,4362,361,-1274,139
1615,793,4697,328,-1264,195
1625,1011,4742,266,-1201,189
1565,918,4452,178,-1151,165
1503,674,4166,49,-1152,171
1486,368,4057,-21,-1182,187
1559,253,4143,-33,-1210,225
1698,438,4191,-8,-1211,259
1926,685,4448,-14,-1202,260
2122,744,4808,11,-1146,205
2185,677,4941,16,-1034,162
2237,629,4770,-29,-929,169
2214,413,4655,-124,-857,200
2116,271,4442,-155,-827,249
2069,416,4483,-202,-819,307
2077,691,4582,-208,-789,315
2125,1013,4554,-205,-752,267
2149,920,4495,-235,-718,174
2186,474,4507,-245,-697,105
2214,137,4596,-257,-663,121
2235,159,4576,-245,-604,174
2270,418,4607,-201,-541,204
2331,720,4679,-141,-473,181
2353,727,4616,-115,-399,124
2322,463,4494,-128,-343,90
2275,240,4389,-144,-304,106
2150,105,4175,-144,-264,142
2056,169,3792,-87,-255,168
2051,352,3725,0,-291,159
2139,520,3931,72,-317,118
2274,688,4268,162,-310,48
2475,807,4450,244,-261,-27
2625,680,4568,270,-204,-89
2679,494,4698,236,-143,-96
2686,495,4749,142,-67,-35
2584,503,4559,37,9,31
2406,454,4244,-58,61,88
2257,515,4021,-111,72,131
2185,588,3906,-128,68,130
2177,540,3918,-160,71,106
2172,496,3981,-169,89,84
2122,453,3927,-155,133,54
2026,408,3734,-128,174,24
1952,335,3524,-118,191,3
1882,183,3383,-129,180,0
1855,97,3335,-147,153,21
1842,131,3331,-163,128,64
1842,131,3331,-163,128,64
1858,179,3285,-154,108,82
1843,176,3322,-135,82,81
1819,271,3390,-97,68,80
1799,339,3266,-69,71,55
1794,262,3169,-53,48,20
1842,184,3253,-35,11,0
1928,157,3386,-26,-9,-6
1996,225,3563,-29,-18,0
2008,305,3660,-19,0,-1
1976,295,3607,-2,20,-14
1938,223,3467,1,31,-29
1905,141,3418,-3,15,-25
1920,170,3489,-15,-11,-5
1952,311,3602,-20,-21,0
1958,401,3637,-10,-17,-20
1952,309,3570,-5,-10,-50
1958,178,3536,-11,-23,-57
1994,145,3580,-28,-39,-39
2045,167,3680,-36,-46,-21
2083,184,3748,-33,-34,-7
2113,243,3779,-31,-15,0
2101,253,3778,-33,7,-3
2075,193,3732,-26,26,-7
2022,167,3685,-15,38,-4
1983,258,3659,-1,43,0
1958,269,3592,2,52,-15
1928,179,3565,2,48,-31
1922,176,3586,0,40,-23
1913,196,3559,2,37,-16
1903,244,3557,1,27,-17
1920,272,3578,-3,20,-22
1952,209,3543,-12,20,-31
1955,134,3601,-30,9,-25
1981,227,3764,-13,6,-11
2005,338,3730,13,35,-21
1964,308,3611,14,52,-43
1965,232,3601,1,45,-48
1958,158,3643,-9,38,-40
1961,178,3639,-9,41,-22
1954,247,3654,-2,45,-11
1951,280,3599,0,56,-20
1939,193,3540,-1,57,-34
1926,140,3585,6,39,-30
1913,181,3621,24,30,-21
1906,186,3582,29,33,-19
1903,189,3569,26,30,-23
1916,194,3561,20,28,-31
1933,133,3595,11,25,-33
1962,128,3709,19,21,-20
1984,206,3717,29,38,-8
1973,269,3696,37,49,-8
1959,296,3650,31,55,-15
1918,208,3577,15,57,-24
1909,153,3541,0,45,-16
1903,110,3583,-10,28,0
1895,170,3632,-15,20,22
1905,275,3635,-16,22,32
1952,355,3634,-11,24,19


1518,-165,4967,308,327,-259
1566,-178,5137,336,390,-262
1535,-112,5017,337,470,-254
1450,-94,4793,255,524,-246
1363,-76,4771,171,532,-242
1360,-52,4847,93,535,-241
1407,-56,4957,3,548,-243
1380,-33,5193,-87,582,-246
1339,25,5405,-89,651,-268
1252,-51,5409,-10,763,-318
1155,-233,5269,135,884,-373
1100,-397,4945,209,980,-380
1067,-408,4746,240,1003,-346
1038,-238,4765,271,991,-309
991,-50,4770,242,993,-299
903,-58,4713,194,1001,-326
862,-7,4772,176,1001,-358
837,71,4970,183,1020,-407
849,62,5066,274,1074,-491
833,-90,4955,312,1139,-550
767,-248,4772,302,1176,-559
651,-230,4549,222,1189,-515
541,-195,4308,178,1173,-493
471,-247,4279,174,1122,-490
511,-285,4451,224,1087,-499
572,-498,4369,275,1109,-512
582,-877,4161,247,1126,-470
547,-976,4195,250,1113,-371
478,-675,4367,354,1145,-296
361,-367,4197,475,1236,-303
190,-231,3834,531,1301,-351
62,-211,3514,552,1298,-413
-4,-241,3368,508,1241,-453
-4,-241,3368,508,1241,-453
-95,-348,3192,419,1159,-470
-145,-348,3108,265,1054,-440
-195,-393,3131,125,950,-417
-288,-521,3271,44,868,-406
-281,-651,3322,27,831,-390
-267,-720,3231,0,804,-343
-266,-501,3319,-14,757,-285
-290,-283,3455,-10,723,-268
-366,-404,3395,6,718,-294
-553,-590,3184,30,716,-301
-686,-583,2906,48,679,-279
-748,-536,2702,26,597,-259
-771,-469,2784,-16,486,-245
-686,-315,3063,-10,393,-247
-632,-307,3149,-11,350,-270
-595,-469,3120,-20,311,-287
-572,-692,3188,-19,262,-266
-597,-865,3215,-27,232,-201
-661,-682,3194,-18,204,-108
-724,-291,3115,-1,171,-53
-755,-40,3089,-21,129,-68
-784,-167,3080,-18,86,-130
-802,-475,3042,0,38,-164
-765,-626,3036,19,-12,-136
-777,-805,2960,20,-53,-86
-854,-814,2976,77,-98,-24
-853,-441,3058,173,-132,12
-801,-330,3000,252,-143,-8
-730,-319,2924,213,-169,-18
-761,-521,2950,144,-210,-13
-807,-513,3018,149,-252,23
-798,-271,2882,200,-283,49
-782,-182,2847,223,-338,31
-718,-88,2962,260,-397,1
-622,-119,2926,270,-435,-26
-603,-393,2837,231,-480,-28
-629,-458,2820,198,-548,25
-632,-253,2728,201,-613,79
-614,-98,2726,232,-683,83
-564,44,2922,285,-740,52
-475,41,2894,335,-766,5
-426,-74,2978,355,-814,-15
-373,89,3266,356,-860,-3
-344,218,3268,347,-877,-11
-298,194,3182,331,-920,-22
-218,169,3290,306,-983,-22
-170,226,3440,300,-1027,-13
-100,382,3412,302,-1043,-1
-66,405,3375,249,-1079,4
-17,212,3354,162,-1131,19
46,-131,3328,68,-1183,57
82,-259,3480,46,-1238,124
119,32,3472,123,-1246,165
176,343,3263,235,-1248,111
342,433,3295,339,-1287,2
638,422,3712,407,-1329,-93
977,346,4213,408,-1328,-148
1118,33,4558,387,-1277,-157
1128,-15,4653,381,-1203,-89
1081,129,4499,326,-1136,-4
957,249,4378,261,-1114,48
884,493,4383,230,-1116,78
945,671,4399,217,-1123,56
1060,639,4435,181,-1140,8
1195,523,5062,132,-1131,-26
1252,114,4986,278,-1039,-55
1293,229,4832,397,-987,3
1386,616,4978,341,-940,63
1420,802,5012,250,-871,63
1420,802,5012,250,-871,63
1368,677,4825,134,-802,42
1302,342,4648,7,-767,56
1235,203,4552,-74,-760,112
1176,276,4534,-112,-756,172
1200,439,4522,-81,-751,191
1275,460,4468,-19,-731,148
1421,330,4306,36,-721,97
1586,248,4537,47,-740,82
1651,348,4813,43,-721,103
1721,435,4789,0,-648,124
1713,472,4611,-26,-601,134
1646,502,4542,-77,-577,137
1574,340,4117,-82,-566,122
1508,218,4096,-157,-618,145
1465,314,4416,-193,-641,162
1477,424,4505,-142,-589,136
1563,483,4464,-88,-523,91
1656,382,4400,-29,-477,39
1715,375,4435,-7,-471,32
1819,462,4648,-87,-459,55
1833,390,4794,-181,-411,61
1818,265,4720,-176,-364,74
1808,337,4665,-179,-336,114
1785,416,4524,-229,-306,135
1789,337,4368,-284,-296,133
1764,285,4450,-297,-308,134
1816,414,4603,-268,-300,133
1852,470,4676,-294,-246,106
1785,280,4519,-316,-176,69
1682,0,4153,-306,-136,59
1565,-191,3823,-272,-138,76
1521,-92,3692,-176,-190,101
1638,248,3929,-62,-245,84
1791,398,4214,9,-253,18
1916,374,4471,35,-235,-34
2044,224,4585,29,-192,-55
2042,4,4568,-16,-140,-27
1945,-31,4456,-70,-92,47
1849,119,4176,-119,-48,114
1764,201,3954,-145,-32,126
1738,199,3911,-160,-34,107
1735,181,3934,-177,-35,87
1693,189,3914,-198,-22,73
1637,211,3848,-212,-11,57
1615,193,3788,-198,-7,33
1645,128,3732,-180,-8,3
1662,38,3801,-205,-10,-7
1679,-11,3848,-252,-6,8
1647,-128,3793,-282,-1,30
1570,-202,3758,-268,-11,67
1557,-110,3693,-231,-21,105
1561,68,3658,-168,-35,107
1594,129,3656,-121,-42,71
1616,79,3683,-90,-51,27
1659,50,3776,-66,-59,-1
1749,-58,3831,-65,-60,-19
1777,-228,3884,-85,-60,-8
1791,-238,3930,-104,-50,28
1779,-141,3942,-112,-31,61
1787,-28,3937,-100,-12,67
1797,-10,3979,-80,-2,51
1779,-107,3978,-82,14,39
1735,-232,3792,-97,29,47
1680,-264,3690,-113,12,77
1679,-118,3757,-95,-10,99
1691,0,3789,-63,-13,81
1699,-12,3745,-47,0,42
1723,-95,3730,-48,4,9
1751,-153,3766,-51,4,0
1785,-181,3809,-55,8,7
1785,-181,3809,-55,8,7
1790,-205,3797,-73,15,19
1793,-204,3819,-98,14,42
1783,-173,3877,-132,18,68
1736,-178,3904,-148,31,84
1672,-136,3794,-125,49,88
1635,-53,3657,-93,49,80
1653,-18,3669,-70,30,54
1676,-36,3781,-69,16,22
1658,-120,3812,-73,22,1
1637,-194,3714,-67,33,-3
1654,-226,3649,-60,22,2
1680,-249,3662,-70,4,11
1689,-187,3814,-77,-11,25
1743,-67,3876,-54,-1,23
1734,-120,3778,-46,15,-2
1695,-209,3709,-60,11,-11
1716,-185,3780,-69,-1,-4
1747,-154,3874,-53,-2,-8
1746,-235,3885,-42,7,-17
1758,-301,3848,-40,14,-5
1783,-306,3847,-61,16,20
1791,-287,3949,-77,15,39
1770,-223,4010,-55,34,47
1721,-178,3912,-17,69,41
1695,-143,3810,11,81,24


1877,-106,5189,-111,425,-358
1817,-206,5121,-147,484,-338
1800,-201,5099,-166,541,-308
1787,-56,5167,-122,595,-298
1726,137,5232,-101,666,-314
1677,186,5171,-104,744,-350
1568,8,4966,-118,802,-386
1442,-124,4753,-153,830,-384
1296,-146,4641,-118,826,-371
1181,42,4726,-26,819,-379
1038,199,4575,48,844,-433
1005,179,4198,-19,851,-475
1076,-39,3994,-74,798,-524
1083,-280,4145,-76,721,-558
1160,-322,4440,-96,697,-540
1276,-138,4774,-66,731,-519
1303,95,5111,-14,822,-533
1245,148,5112,57,961,-584
1125,-6,4692,85,1098,-632
930,-247,4187,1,1167,-614
710,-386,3807,-73,1153,-555
500,-400,3563,-110,1084,-493
391,-289,3275,-106,983,-459
424,-236,3287,-148,851,-444
531,-199,3707,-110,731,-470
722,-243,4061,1,706,-543
830,-350,4345,61,761,-587
896,-223,4627,185,862,-625
925,-248,4648,335,1024,-714
833,-625,4546,393,1202,-773
680,-630,4345,466,1342,-749
392,-451,4083,433,1422,-682
126,-380,3672,372,1439,-622
-46,-516,3328,217,1394,-550
-92,-676,3247,150,1290,-486
-149,-751,3188,137,1185,-429
-168,-562,3229,92,1089,-364
-101,-167,3500,100,1013,-357
41,69,3810,199,1007,-469
38,-269,3714,222,1069,-618
-26,-834,3474,194,1103,-664
-77,-1107,3334,233,1077,-619
-205,-945,3241,225,1021,-501
-350,-706,3205,234,952,-403
-487,-747,3026,251,896,-357
-604,-835,2822,224,823,-319
-660,-803,2726,234,728,-288
-763,-812,2676,245,632,-279
-858,-771,2698,335,545,-300
-872,-605,2756,460,469,-332
-809,-509,2757,531,409,-371
-733,-684,2892,535,346,-392
-673,-893,2903,546,297,-353
-678,-1025,2745,426,252,-242
-781,-1094,2595,305,183,-103
-895,-887,2521,292,93,16
-988,-583,2450,336,10,68
-1034,-488,2255,377,-69,50
-1109,-684,2109,353,-174,19
-1133,-789,2118,332,-301,27
-1057,-618,2245,308,-421,49
-915,-505,2419,295,-508,39
-785,-542,2455,313,-572,18
-653,-524,2724,338,-630,14
-560,-558,2853,374,-628,17
-498,-617,2598,445,-620,34
-498,-617,2598,445,-620,34
-525,-703,2384,462,-665,79
-596,-581,2365,470,-751,156
-599,-273,2347,496,-836,211
-573,-49,2286,495,-920,215
-490,-69,2310,478,-1023,190
-401,-156,2418,447,-1130,191
-326,-77,2654,389,-1219,234
-272,120,2865,388,-1283,263
-162,291,2907,420,-1326,257
18,249,2998,403,-1379,245
159,-7,3280,336,-1433,263
221,-177,3388,274,-1448,336
241,-152,3334,248,-1448,421
275,48,3342,354,-1463,434
422,333,3360,512,-1487,389
742,547,3598,602,-1523,333
997,773,4026,600,-1545,306
1130,894,4268,489,-1511,292
1143,785,4402,358,-1457,274
1078,642,4401,316,-1399,261
1072,389,4167,265,-1349,269
1014,118,3973,238,-1345,309
973,156,3993,267,-1375,388
1030,513,4038,359,-1390,434
1110,860,3846,433,-1388,398
1263,1061,4315,471,-1416,307
1480,566,4496,681,-1354,181
1631,155,4115,914,-1314,183
1686,354,4209,879,-1326,313
1671,758,4329,828,-1306,416
1719,1085,4146,769,-1268,468
1696,981,3745,678,-1258,475
1639,714,3478,561,-1305,520
1644,644,3408,492,-1379,603
1672,857,3432,500,-1438,658
1773,1124,3305,567,-1465,632
1911,1246,3424,668,-1499,525
2130,1327,3752,790,-1506,402
2419,1321,4059,862,-1475,304
2619,1105,4162,914,-1413,251
2828,1210,4330,901,-1376,289
2987,1518,4878,805,-1312,338
3002,1741,4994,792,-1175,321
2935,1941,4937,782,-1058,290
2900,2025,4992,668,-962,273
2825,1918,4957,526,-866,263
2721,1751,4729,410,-789,276
2696,1697,4542,309,-760,309
2774,1890,4672,229,-764,332
2966,2111,5061,160,-741,312
3198,2215,5256,69,-660,258
3280,2047,5425,7,-571,187
3240,1759,5591,-45,-442,158
3122,1562,5431,-155,-256,197
2932,1362,4931,-238,-92,261
2668,1176,4278,-277,4,327
2408,1035,3592,-234,31,368
2200,944,3051,-123,-19,364
2130,983,2905,14,-143,332
2328,1237,3263,96,-273,297
2663,1553,3983,118,-328,238
2844,1633,4485,125,-252,138
2812,1397,4474,113,-88,50
2719,1024,4027,82,63,24
2573,690,3568,18,134,67
2404,562,3308,-41,131,162
2303,656,3162,-91,98,266
2231,766,3126,-130,57,324
2178,890,3192,-106,23,325
2178,890,3192,-106,23,325
2175,1082,3280,-61,19,288
2224,1202,3344,0,52,202
2241,1161,3338,76,100,82
2255,1017,3260,126,141,-10
2334,828,3192,135,162,-55
2339,650,3240,89,162,-37
2274,605,3325,53,164,16
2212,650,3264,51,187,74
2103,719,3141,57,197,118
1993,849,3004,55,186,148
1977,961,2918,29,149,155
1998,977,2977,22,96,130
2019,1033,3127,30,48,104
2139,1114,3259,32,24,75
2304,1114,3393,31,17,28
2394,1011,3529,37,25,-17
2416,897,3579,31,50,-36
2409,801,3512,6,77,-21
2378,727,3393,-24,89,12
2357,703,3329,-42,85,49
2326,761,3329,-32,82,75
2299,909,3340,-14,92,83
2263,991,3282,-3,116,57
2216,919,3175,0,132,11
2178,802,3149,-15,119,-7
2170,764,3225,-30,98,-4
2166,821,3350,-38,92,1
2170,854,3399,-59,102,5
2213,717,3366,-80,116,-5
2167,493,3324,-137,114,16
2081,406,3310,-186,96,90
2053,501,3206,-215,77,168
2054,669,3149,-217,48,206
2070,790,3226,-201,17,193
2125,833,3340,-175,9,144
2156,784,3417,-146,28,85
2129,692,3404,-80,63,24
2143,638,3341,-47,93,2
2208,590,3309,-77,111,8
2179,499,3320,-128,116,31
2071,525,3343,-150,113,76
2016,752,3344,-148,104,127
2032,988,3287,-140,96,125
2049,1067,3273,-128,77,75
2102,1036,3293,-109,50,11
2196,857,3270,-102,28,-39
2296,586,3305,-117,0,-56
2372,419,3424,-137,-22,-19
2486,363,3560,-152,-27,48
2483,401,3669,-154,-10,120
2438,549,3701,-134,29,173
2336,690,3588,-83,88,170
2177,814,3387,-28,132,129
2115,879,3217,2,141,64
2089,848,3178,37,120,-12
2048,784,3255,60,94,-75
2084,730,3295,69,81,-112
2190,537,3313,54,74,-129
2277,233,3295,22,55,-93
2304,119,3350,-67,18,36
2275,318,3469,-112,0,184
2223,710,3377,-93,5,259
2170,1032,3305,-74,14,243


2582,-126,5943,270,462,-532
2487,-184,5529,238,550,-475
2380,-161,5126,101,601,-383
2339,21,5107,83,589,-331
2376,232,5253,110,609,-357
2349,197,5319,132,696,-446
2262,113,5259,164,816,-531
2158,50,5166,205,948,-603
2099,46,5165,354,1068,-693
1997,27,4903,505,1190,-791
1877,-142,4468,490,1267,-832
1780,-286,4358,438,1258,-815
1651,-339,4259,453,1246,-783
1562,-420,3954,350,1240,-706
1535,-510,3644,228,1194,-621
1526,-458,3600,27,1115,-502
1556,-188,3812,-152,1034,-406
1504,-16,4092,-227,1009,-410
1368,-165,4102,-209,1058,-479
1241,-397,3893,-146,1109,-539
1214,-570,3881,-41,1133,-580
1214,-686,3972,135,1168,-627
1189,-733,3910,279,1224,-648
1115,-648,3724,401,1249,-644
1081,-481,3691,403,1234,-627
1192,-482,3766,395,1219,-647
1301,-714,3844,321,1221,-659
1261,-840,4036,161,1237,-608
1167,-749,4199,68,1295,-542
1039,-594,4211,74,1381,-524
843,-510,3991,97,1466,-542
652,-451,3804,47,1503,-542
476,-520,3602,-5,1502,-548
327,-775,3340,-101,1464,-530
186,-949,3263,-165,1379,-471
104,-831,3308,-164,1292,-399
53,-583,3353,-115,1234,-384
-2,-446,3261,-21,1189,-443
-52,-554,3239,126,1123,-537
-81,-809,3369,273,1062,-583
-127,-819,3384,312,1033,-541
-201,-592,3386,310,1018,-483
-275,-377,3384,341,1013,-465
-363,-422,3266,395,1009,-496
-363,-422,3266,395,1009,-496
-423,-587,3147,463,980,-505
-458,-700,3026,534,935,-480
-509,-813,3088,524,892,-411
-596,-918,3014,619,863,-336
-616,-654,2816,564,835,-226
-672,-375,2633,481,774,-161
-747,-233,2563,402,688,-138
-811,-228,2490,391,601,-152
-899,-491,2314,364,514,-166
-990,-847,2175,288,412,-118
-1048,-984,2049,195,297,-3
-1117,-808,1995,92,174,130
-1157,-419,2001,26,54,202
-1154,-177,1938,-24,-47,169
-1139,-198,1883,-67,-162,73
-1086,-488,2032,-70,-287,-16
-1008,-867,2343,-49,-389,-42
-950,-984,2515,-29,-442,16
-911,-743,2608,-3,-484,103
-858,-399,2673,36,-529,152
-801,-245,2547,0,-568,167
-784,-490,2530,-122,-639,169
-817,-902,2628,-174,-713,189
-887,-1154,2234,-153,-769,246
-868,-1195,1883,-162,-902,329
-739,-1051,2370,-83,-1078,376
-543,-884,2697,118,-1148,344
-316,-653,2783,332,-1175,274
-115,-360,3091,532,-1212,193
60,-206,3319,616,-1209,134
122,-269,3310,653,-1189,110
168,-358,3241,632,-1190,148
254,-264,3289,580,-1223,237
383,172,3554,575,-1263,321
487,755,3835,602,-1269,338
556,1059,3949,575,-1238,289
581,937,3976,524,-1210,223
547,604,4081,459,-1205,194
572,444,4088,453,-1190,207
624,526,4028,464,-1173,229
704,727,4062,465,-1172,229
784,796,4033,437,-1165,203
774,593,3888,345,-1167,189
753,301,3704,244,-1204,219
772,142,3750,189,-1268,271
793,352,4064,257,-1314,303
920,910,4341,395,-1294,270
1125,1365,4428,511,-1235,151
1345,1441,4516,524,-1191,14
1578,1057,4628,398,-1160,-59
1735,459,4623,217,-1131,-36
1674,128,4744,37,-1126,92
1523,68,5058,34,-1055,249
1433,238,4290,305,-964,367
1341,687,3751,306,-995,477
1269,951,3673,139,-1082,503
1303,996,3784,83,-1166,425
1368,799,3925,176,-1206,278
1576,669,4077,298,-1206,154
1848,652,4438,367,-1176,81
2046,741,4651,429,-1114,63
2172,730,4551,369,-1041,99
2125,421,4281,191,-987,182
1988,75,3901,55,-964,298
1825,66,3557,-45,-987,437
1724,437,3509,-90,-1032,519
1726,777,3279,-2,-1059,474
1790,799,3090,79,-1117,342
1895,561,3296,96,-1184,224
1895,561,3296,96,-1184,224
2122,568,3868,224,-1215,143
2327,751,4179,371,-1155,65
2409,816,4215,456,-1076,11
2520,871,4350,436,-1014,18
2604,878,4528,355,-943,58
2532,851,4487,246,-852,126
2360,833,4166,151,-772,199
2185,813,3731,74,-752,252
2100,839,3524,30,-794,282
2184,1022,3554,-1,-852,282
2375,1143,3769,-53,-875,229
2625,1192,3827,-98,-882,128
2780,959,4248,-116,-880,20
2803,726,4568,-110,-796,-27
2759,588,4483,-106,-660,-12
2645,458,4081,-113,-549,39
2574,333,3644,-141,-516,113
2544,218,3488,-175,-546,181
2552,396,3799,-134,-602,237
2651,836,4100,-3,-598,228
2765,1010,4120,81,-541,138
2853,876,4068,102,-501,43
3020,611,4067,84,-486,-6
3158,269,4169,15,-469,3
3192,119,4356,5,-431,66
3163,323,4518,62,-357,141
3155,647,4502,140,-242,176
3124,829,4331,194,-131,158
3010,873,4157,200,-58,133
2868,915,4053,177,-15,127
2762,992,3882,154,17,118
2722,937,3671,115,35,94
2682,813,3602,57,23,89
2639,835,3682,2,12,113
2637,866,3619,-39,30,120
2604,744,3459,-94,46,120
2561,713,3464,-143,38,141
2571,773,3509,-161,50,152
2503,733,3435,-154,88,133
2422,705,3277,-159,121,116
2377,682,3165,-150,139,92
2335,613,3046,-135,144,65
2310,574,2939,-130,134,44
2307,504,2981,-128,105,27
2330,355,2889,-107,84,9
2390,316,2914,-100,46,17
2511,395,3114,-104,9,32
2585,386,3287,-100,10,25
2599,295,3360,-93,43,15
2577,214,3357,-82,86,20
2455,232,3249,-73,128,39
2383,400,3154,-59,144,51
2358,453,3050,-55,137,31
2303,310,2973,-70,108,6
2272,198,2930,-102,60,17
2282,208,2977,-135,2,49
2299,260,3056,-146,-38,70
2353,310,3184,-144,-65,72
2410,324,3339,-144,-71,63
2489,267,3459,-143,-55,56
2510,200,3519,-127,-28,63
2493,226,3533,-106,2,85
2536,335,3494,-59,34,96
2562,376,3439,-20,64,76
2496,338,3399,-5,86,54
2433,303,3254,-3,101,44
2397,239,3068,-20,88,46
2368,205,3026,-49,38,67
2362,255,3114,-69,-4,88
2362,255,3114,-69,-4,88
2376,335,3206,-74,-25,96
2420,426,3294,-67,-23,87
2469,404,3303,-67,0,61
2454,229,3249,-84,24,42
2384,128,3176,-89,32,58
2337,163,3064,-66,29,82
2360,207,2972,-47,4,87
2383,190,2994,-50,-36,86
2393,188,3127,-65,-74,95
2431,251,3294,-56,-84,98
2442,322,3377,-28,-60,80
2419,348,3391,8,-20,44
2370,321,3292,37,18,7
2356,247,3110,39,38,-12
2373,132,3011,27,19,-12


1889,250,4786,-90,792,-453
1809,-7,4673,-204,806,-394
1659,21,4604,-277,823,-305
1526,162,4451,-311,857,-260
1444,272,4354,-325,882,-281
1403,317,4389,-288,906,-359
1376,168,4323,-226,950,-471
1295,-129,4172,-212,982,-547
1261,-278,4125,-274,986,-540
1231,-340,4273,-316,991,-514
1186,-358,4402,-243,1033,-531
1132,-417,4242,-125,1111,-564
1086,-488,4004,-17,1157,-588
1035,-479,3992,102,1164,-604
964,-389,3989,247,1162,-623
903,-394,3864,315,1168,-650
903,-394,3864,315,1168,-650
745,-436,3636,296,1156,-649
626,-398,3492,199,1114,-627
539,-507,3547,139,1056,-636
453,-665,3503,194,1011,-672
434,-591,3590,187,955,-661
489,-369,3848,197,897,-653
633,-313,3958,148,882,-659
735,-431,4076,34,885,-645
774,-582,4166,-77,904,-596
840,-702,4308,-168,950,-534
850,-679,4549,-67,1012,-502
787,-389,4610,97,1105,-484
706,-229,4462,120,1219,-483
588,-452,4247,97,1298,-499
457,-697,4000,46,1325,-451
289,-826,3654,-74,1315,-348
49,-832,3160,-159,1248,-269
-122,-756,3130,-132,1103,-232
-165,-619,3346,27,980,-243
-144,-555,3387,79,922,-283
-130,-764,3480,81,886,-339
-145,-977,3609,68,871,-341
-190,-993,3660,94,870,-293
-243,-892,3697,190,886,-250
-282,-861,3604,341,926,-246
-451,-1019,3266,489,954,-226
-548,-887,2802,454,938,-136
-674,-826,2484,341,861,-84
-825,-951,2222,280,744,-66
-964,-1078,2107,235,604,-39
-1051,-1142,2081,236,456,-10
-1087,-1003,2011,247,323,12
-1139,-837,1930,172,194,14
-1165,-824,1967,97,52,0
-1135,-896,2165,21,-63,8
-1156,-936,2252,-22,-142,47
-1212,-818,2148,-51,-210,108
-1256,-752,2009,-63,-294,144
-1273,-733,2029,-57,-401,160
-1304,-735,2028,-40,-506,170
-1341,-815,1972,-18,-605,170
-1301,-768,1935,31,-715,168
-1161,-671,1965,70,-834,152
-983,-590,2060,72,-955,140
-680,-524,2295,46,-1070,137
-385,-561,2707,92,-1160,118
-105,-655,2803,154,-1188,112
97,-719,2922,185,-1230,138
254,-705,3533,166,-1223,207
312,-595,3512,221,-1129,276
239,-390,3169,313,-1068,324
73,-203,2889,373,-1068,332
-52,-57,2741,374,-1101,319
-99,254,2744,426,-1176,274
10,553,2903,459,-1253,181
200,398,3002,455,-1316,58
412,-50,3131,413,-1382,0
521,-209,3395,307,-1443,75
599,56,3642,210,-1473,198
705,308,3817,127,-1473,272
792,370,3905,63,-1459,304
835,424,3971,39,-1442,318
839,462,4075,96,-1406,285
825,515,3966,215,-1361,222
804,558,3870,257,-1325,172
842,636,3939,330,-1320,109
1001,688,4033,405,-1316,42
1138,597,4062,436,-1304,-19
1236,448,3992,429,-1310,-38
1236,448,3992,429,-1310,-38
1349,259,3891,371,-1336,-3
1497,19,3760,259,-1376,85
1551,-221,3749,132,-1430,213
1487,-117,3903,85,-1475,341
1532,527,4169,137,-1477,399
1714,1204,4650,265,-1442,292
1950,1080,5146,567,-1299,50
2173,576,4704,923,-1138,-123
2307,399,4583,956,-1093,-110
2412,445,4782,814,-1074,-9
2388,517,4971,654,-1025,101
2311,719,4838,579,-973,195
2261,858,4661,504,-937,240
2171,882,4558,409,-909,248
2118,938,4459,390,-899,240
2180,1034,4553,391,-890,209
2210,870,4305,447,-875,150
2291,653,4218,436,-898,137
2265,462,4319,295,-908,182
2190,464,4248,233,-896,244
2197,755,4091,206,-896,292
2202,915,4044,146,-895,270
2229,826,4036,106,-883,204
2313,671,4139,111,-865,151
2460,723,4361,140,-830,130
2517,792,4520,162,-758,94
2538,880,4603,133,-670,76
2635,971,4666,98,-586,68
2660,958,4278,48,-526,50
2596,788,4216,-34,-539,40
2533,536,4298,-71,-550,68
2516,511,4436,-87,-527,135
2498,639,4363,-67,-462,183
2541,686,4172,-42,-405,186
2593,698,4177,-42,-375,171
2646,724,4338,-50,-335,148
2623,687,4382,-57,-259,121
2523,623,4185,-62,-184,109
2408,556,3900,-81,-144,116
2330,521,3679,-120,-151,138
2305,535,3636,-170,-182,158
2317,569,3678,-206,-204,163
2346,508,3607,-224,-202,151
2363,369,3498,-244,-196,139
2399,238,3430,-254,-193,138
2405,215,3462,-241,-189,145
2446,316,3542,-196,-175,145
2511,351,3554,-163,-143,126
2517,216,3485,-139,-103,96
2446,68,3366,-95,-80,82
2410,81,3236,-46,-73,90
2374,131,3190,1,-87,93
2361,167,3173,62,-112,79
2399,154,3180,101,-135,65
2449,168,3331,122,-161,62
2526,305,3599,152,-162,68
2563,388,3739,188,-116,51
2511,369,3657,197,-57,40
2437,409,3514,194,-23,51
2383,486,3380,171,-21,66
2321,479,3254,133,-41,70
2306,505,3246,91,-80,79
2389,573,3342,49,-117,84
2491,523,3388,11,-126,71
2528,398,3490,-16,-125,68
2592,425,3656,-11,-105,87
2630,449,3630,-6,-49,94
2560,394,3444,-5,1,93
2460,428,3322,3,19,101
2460,428,3322,3,19,101
2433,580,3290,9,22,101
2424,611,3201,13,17,70
2394,527,3175,-1,-2,41
2395,471,3264,-1,-30,28
2431,405,3282,-12,-34,28
2430,351,3259,-40,-38,43
2414,381,3352,-51,-50,64
2401,458,3411,-43,-43,68
2383,507,3372,-48,-23,54
2397,527,3387,-40,-10,26
2437,510,3506,-20,0,-9
2441,434,3517,-15,27,-34
2397,331,3348,-20,54,-40
2365,294,3219,-30,47,-29
2372,372,3265,-47,17,-13
2419,386,3285,-79,0,-12
2441,256,3237,-96,-8,-25
2472,137,3257,-115,-27,-17
2524,161,3391,-115,-37,4
2578,272,3523,-108,-16,17
2563,291,3502,-88,24,0
2491,198,3379,-69,65,-19
2471,216,3305,-70,81,-16
2471,265,3305,-80,77,-14
2454,221,3332,-76,66,-19
2447,198,3337,-77,59,-12
2419,217,3283,-87,61,-3
2396,239,3254,-88,55,-5
2387,250,3281,-80,43,-18
2403,214,3264,-81,43,-30
2398,82,3212,-98,42,-33
2373,32,3308,-112,25,-10
2376,165,3420,-99,30,13
2379,267,3343,-72,58,5
2342,228,3222,-68,69,-18
2319,175,3207,-80,57,-30
2290,167,3267,-77,40,-33
2302,180,3259,-69,34,-34
2281,149,3200,-62,31,-37
2290,148,3182,-50,20,-40
2356,141,3176,-47,8,-42
2406,67,3222,-59,-1,-44
2411,22,3322,-67,-9,-23


1962,408,4711,-171,433,-251
1810,333,4692,-209,435,-267
1760,326,4719,-189,443,-285
1736,340,4738,-126,463,-321
1735,387,4708,-92,505,-374
1772,317,4611,-107,552,-431
1903,-4,4546,-169,599,-463
1995,-378,4580,-254,642,-431
1892,-487,4600,-312,691,-331
1712,-337,4511,-329,751,-231
1561,-92,4336,-326,807,-182
1429,45,4116,-299,833,-196
1408,91,4100,-260,826,-247
1404,-11,4214,-210,827,-325
1383,-146,4249,-182,860,-379
1365,-222,4219,-136,896,-410
1368,-192,4238,-120,924,-416
1377,-148,4306,-97,943,-427
1412,-164,4374,-65,969,-443
1485,-373,4287,-57,1015,-448
1467,-661,4102,-101,1056,-403
1321,-775,3918,-159,1058,-311
1202,-618,3815,-186,1032,-216
1136,-362,3776,-168,994,-178
1118,-108,3928,-128,957,-203
1154,45,4113,-76,954,-280
1169,-113,4133,-51,987,-386
1071,-434,3995,-60,1016,-444
959,-513,3968,-112,1019,-417
895,-332,4020,-164,1010,-369
859,-153,4108,-168,1005,-364
825,-206,4197,-119,1023,-406
768,-397,4101,-80,1056,-436
765,-592,3970,-100,1079,-412
747,-740,3932,-115,1072,-358
701,-641,4045,-127,1051,-280
675,-278,4101,-135,1066,-224
682,-40,4093,-191,1097,-227
666,-136,4020,-262,1123,-269
534,-544,3836,-298,1141,-314
358,-863,3607,-319,1140,-291
268,-954,3497,-296,1113,-233
177,-888,3372,-241,1072,-175
177,-888,3372,-241,1072,-175
74,-756,3320,-216,1018,-136
1,-555,3344,-166,964,-140
-15,-408,3390,-146,926,-174
-59,-594,3298,-167,909,-230
-192,-908,3167,-204,872,-242
-387,-1070,2980,-174,820,-211
-549,-1001,2642,-209,745,-142
-626,-1021,2522,-241,619,-97
-703,-1158,2667,-173,486,-83
-724,-1172,2821,-74,392,-53
-691,-1095,2899,14,340,-36
-689,-1011,2956,114,304,-46
-707,-992,2993,201,280,-61
-756,-1088,2910,261,267,-64
-818,-1145,2789,335,233,-55
-856,-1000,2743,426,174,-37
-875,-623,2734,469,102,-27
-800,-451,2805,464,22,-62
-714,-615,2763,411,-54,-88
-671,-747,2857,227,-147,-49
-707,-865,3038,141,-227,7
-758,-788,3040,116,-266,71
-828,-670,2800,139,-297,93
-882,-607,2624,157,-371,81
-844,-534,2750,188,-469,52
-702,-564,2951,249,-545,9
-559,-721,3071,293,-585,-14
-502,-855,3093,313,-605,5
-493,-764,3088,354,-624,45
-473,-482,3014,426,-648,68
-432,-290,2843,467,-684,59
-408,-211,2769,431,-754,48
-329,-135,2956,348,-845,54
-199,-164,3249,270,-910,52
-148,-318,3521,278,-932,37
-109,-304,3561,357,-918,45
-97,-197,3352,422,-910,61
-57,-32,3101,425,-941,87
-2,3,2882,360,-1012,102
42,-174,2917,257,-1105,112
156,-301,3164,234,-1183,113
268,-274,3452,324,-1213,86
421,-87,3543,440,-1201,49
604,-115,3501,493,-1192,20
715,-334,3486,509,-1213,39
799,-284,3565,452,-1244,136
880,-128,3618,380,-1253,219
899,-53,3680,369,-1250,240
887,82,3699,439,-1228,220
928,195,3519,509,-1201,163
1034,97,3369,530,-1210,112
1149,-11,3539,489,-1250,116
1212,48,3724,482,-1278,143
1255,232,3764,491,-1278,161
1387,283,3792,477,-1273,148
1535,291,3937,468,-1282,130
1679,487,3997,413,-1280,150
1874,581,4301,261,-1272,159
1971,127,4340,258,-1212,144
1991,-256,3932,347,-1193,202
1874,-239,3959,274,-1214,339
1705,113,3980,230,-1196,433
1625,567,3815,273,-1157,404
1669,714,3742,372,-1146,275
1896,634,3758,514,-1167,128
2118,459,3986,564,-1202,44
2227,274,4355,537,-1196,52
2246,275,4206,575,-1148,110
2269,470,4084,539,-1124,178
2269,470,4084,539,-1124,178
2258,468,3799,527,-1113,197
2289,594,3814,489,-1169,211
2464,814,4459,417,-1206,192
2570,872,4762,442,-1132,133
2577,936,4602,475,-1044,92
2574,882,4482,419,-990,78
2495,627,4345,339,-955,83
2436,530,4281,283,-938,124
2544,718,4410,274,-922,152
2661,875,4616,286,-885,128
2725,844,4815,332,-816,83
2827,880,4608,285,-717,88
2768,774,4237,196,-685,92
2652,526,4196,92,-694,120
2586,407,4099,33,-678,169
2562,444,3952,53,-655,204
2611,544,3832,96,-629,203
2687,631,3849,139,-613,166
2775,743,3988,143,-588,127
2861,743,4093,63,-527,86
2881,553,4220,16,-456,53
2872,593,4251,45,-370,55
2797,646,3982,81,-298,55
2717,563,3854,62,-271,67
2635,521,3791,44,-263,104
2582,541,3702,42,-256,136
2600,663,3657,64,-256,145
2666,828,3781,100,-251,124
2711,844,3918,136,-215,70
2680,772,3877,182,-161,21
2679,766,3757,180,-121,13
2640,680,3588,143,-104,18
2588,589,3465,89,-114,42
2625,681,3545,43,-133,81
2668,804,3664,32,-124,88
2658,779,3687,32,-89,65
2635,718,3603,34,-48,48
2614,688,3496,19,-23,45
2603,682,3458,-10,-18,53
2614,671,3473,-36,-17,59
2634,648,3492,-47,-1,53
2631,619,3443,-50,18,47
2635,610,3430,-51,40,37
2637,558,3404,-61,63,29
2581,475,3380,-84,79,35
2499,437,3275,-98,92,52
2443,433,3146,-107,89,67
2441,479,3142,-104,69,70
2436,516,3211,-87,56,52
2426,497,3221,-65,61,23
2416,407,3112,-57,68,0
2414,309,3062,-57,51,-1
2427,261,3103,-56,31,10
2418,303,3132,-40,23,24
2449,432,3142,-17,23,27
2514,482,3159,-2,28,1
2550,399,3187,4,34,-32
2533,306,3205,1,39,-37
2489,286,3162,-1,41,-17
2470,269,3073,-20,36,6
2472,313,3072,-34,15,28
2501,431,3134,-35,0,36
2515,476,3219,-29,1,16
2477,438,3219,-14,18,-10
2443,381,3149,-11,33,-24
2404,344,3115,-10,28,-20
2389,368,3111,-18,12,-3
2396,423,3132,-42,-4,13
2422,453,3143,-67,-21,19
2422,453,3143,-67,-21,19
2457,415,3175,-89,-37,15
2469,387,3235,-99,-44,11
2463,431,3319,-90,-39,10
2482,499,3407,-48,-24,-6
2483,471,3423,-7,1,-40
2478,386,3343,14,29,-60
2454,329,3259,37,38,-63
2443,342,3246,50,29,-50
2444,361,3215,21,24,-32
2427,324,3177,-10,19,-20
2416,352,3168,-17,6,-7
2461,382,3181,-6,-2,-11
2516,323,3224,1,-7,-24
2528,242,3293,0,-2,-25
2515,253,3321,4,10,-11
2510,318,3296,14,27,0


1544,-424,4978,-250,411,-183
1432,-275,4772,-188,512,-182
1432,-275,4772,-188,512,-182
1304,-199,4446,-157,584,-218
1217,-260,4253,-161,608,-270
1167,-398,4186,-167,604,-320
1146,-604,4199,-193,585,-338
1154,-730,4257,-182,573,-331
1179,-736,4332,-148,578,-317
1220,-647,4445,-69,599,-320
1217,-543,4516,13,643,-342
1195,-417,4530,47,702,-371
1210,-455,4494,87,760,-423
1153,-691,4463,173,808,-477
1095,-841,4399,240,856,-487
1035,-877,4235,260,896,-459
949,-920,4055,255,910,-422
898,-809,3969,235,893,-382
950,-544,4096,171,857,-343
1011,-442,4259,146,850,-369
1027,-713,4266,120,879,-416
1056,-945,4362,81,907,-392
1001,-957,4550,93,967,-340
846,-924,4630,193,1071,-317
694,-693,4452,327,1172,-298
633,-374,4240,338,1233,-281
616,-431,4109,341,1253,-324
531,-791,3989,375,1248,-363
477,-996,3952,355,1230,-322
458,-921,3962,337,1209,-253
416,-613,3966,360,1194,-221
419,-231,3953,373,1179,-243
399,-86,3944,328,1154,-305
247,-279,3824,285,1125,-383
104,-672,3687,137,1092,-407
-48,-1023,3589,23,1044,-360
-157,-914,3540,17,981,-274
-240,-657,3510,26,939,-231
-293,-613,3371,28,900,-250
-318,-746,3405,27,835,-265
-341,-728,3447,40,781,-249
-359,-723,3308,-2,742,-240
-407,-823,3359,-28,682,-233
-485,-996,3624,20,649,-217
-564,-1004,3522,110,667,-183
-590,-809,3305,137,661,-131
-711,-768,3033,102,623,-106
-893,-939,2767,0,558,-77
-981,-1085,2792,8,458,-51
-972,-1087,2921,148,377,-41
-934,-1019,3063,306,332,-44
-873,-754,3123,436,309,-54
-826,-663,3219,542,291,-99
-831,-654,3128,571,274,-113
-902,-794,2995,453,246,-88
-1007,-917,2907,404,190,-34
-1061,-751,2813,441,122,10
-1043,-391,2810,493,38,22
-1002,-254,2845,493,-33,-10
-986,-337,2813,483,-108,-54
-934,-352,2855,425,-197,-54
-880,-416,2949,344,-276,-34
-833,-635,2996,287,-339,-12
-785,-793,3074,280,-388,36
-733,-641,3080,293,-420,105
-735,-416,3089,287,-444,138
-759,-393,3101,328,-466,119
-771,-430,2995,399,-490,97
-822,-408,2873,448,-535,92
-782,-210,2868,505,-602,80
-720,-53,2972,536,-666,47
-631,-30,3002,525,-716,14
-631,-30,3002,525,-716,14
-578,-161,3032,501,-774,1
-510,-104,3141,484,-838,26
-487,-118,3110,463,-900,43
-326,38,3200,442,-977,70
-121,137,3563,405,-1042,73
40,146,3805,365,-1060,70
99,-44,3863,318,-1050,75
124,-234,3843,309,-1045,107
251,24,4075,347,-1052,155
377,462,4394,426,-1031,151
466,742,4453,451,-963,113
462,708,4234,403,-911,73
403,433,4042,304,-907,63
392,255,4095,205,-933,105
359,366,4212,192,-942,144
356,526,4104,230,-926,134
456,548,4041,276,-931,94
536,596,4167,303,-947,69
631,638,4096,269,-938,68
718,425,3959,170,-944,86
711,169,3930,94,-969,139
713,71,3772,41,-971,210
707,155,3660,42,-980,246
749,436,3684,102,-998,235
861,695,3838,157,-1012,184
958,767,3964,205,-1006,104
994,529,3884,240,-989,29
988,113,3741,230,-990,17
898,-57,3582,206,-1008,83
841,104,3357,208,-1035,169
868,127,3042,219,-1084,198
920,72,2992,198,-1170,222
1054,201,3364,189,-1252,240
1213,257,3667,369,-1255,185
1363,395,3633,559,-1224,121
1491,508,3725,612,-1203,74
1592,581,3785,639,-1183,47
1673,586,3747,616,-1168,41
1734,489,3832,590,-1174,49
1785,466,3887,565,-1164,87
1829,433,3791,522,-1145,141
1817,417,3868,510,-1144,190
1786,441,3873,557,-1116,206
1796,589,3798,648,-1086,194
1909,759,3808,710,-1070,158
2061,950,4126,724,-1068,128
2205,1082,4399,707,-1032,110
2143,900,4325,694,-963,87
2142,970,4131,653,-924,122
2242,1136,4170,584,-930,148
2329,1196,4513,574,-936,128
2466,1277,4797,588,-890,105
2586,1358,4814,557,-804,107
2639,1470,4640,471,-749,121
2634,1380,4705,332,-727,141
2598,1305,4828,227,-682,176
2545,1294,4710,174,-605,195
2486,1273,4526,152,-542,191
2451,1297,4423,138,-506,182
2480,1275,4373,86,-482,176
2499,1282,4397,18,-463,183
2517,1393,4449,-38,-434,187
2538,1406,4417,-94,-391,168
2529,1231,4292,-166,-346,159
2437,1080,4028,-232,-318,160
2348,975,3891,-224,-316,153
2366,974,3726,-167,-317,134
2473,976,3667,-111,-335,100
2608,968,3863,-87,-363,74
2608,968,3863,-87,-363,74
2705,938,4100,-57,-349,56
2751,964,4163,-30,-295,48
2822,1056,4209,-36,-233,53
2819,1042,4261,-69,-163,53
2669,971,4179,-96,-79,63
2523,923,3912,-109,-5,85
2412,883,3632,-117,25,103
2343,825,3452,-147,26,116
2315,754,3363,-194,12,127
2299,687,3372,-243,0,140
2284,656,3431,-287,4,157
2260,652,3421,-291,25,160
2231,696,3413,-256,49,149
2202,779,3411,-221,79,120
2164,727,3328,-155,111,63
2104,587,3215,-90,125,20
2060,469,3111,-45,116,9
2032,398,3037,-17,93,27
2016,396,3023,1,58,52
2042,460,3049,18,23,73
2071,556,3110,6,-4,88
2114,670,3210,-36,-21,96
2166,712,3277,-50,-28,78
2211,660,3294,-61,-33,49
2243,578,3328,-77,-40,40
2295,552,3356,-106,-47,54
2361,588,3426,-130,-51,73
2387,633,3509,-138,-42,78
2385,690,3534,-114,-21,63
2383,687,3500,-103,0,40
2346,617,3418,-106,11,21
2314,541,3335,-118,7,19
2309,507,3321,-136,-5,33
2332,499,3370,-152,-21,48
2363,499,3453,-153,-24,59
2370,507,3474,-162,-12,68
2355,493,3390,-181,2,74
2347,477,3282,-220,2,87
2370,473,3296,-279,-18,110
2395,496,3433,-314,-40,128
2416,555,3610,-304,-42,127
2420,596,3642,-263,-12,107
2374,559,3560,-218,19,73
2362,521,3460,-201,37,54
2393,461,3470,-182,34,43
2413,464,3581,-161,38,36
2414,519,3646,-164,72,31
2372,486,3520,-148,113,10
2364,408,3386,-149,125,3
2378,327,3358,-166,109,13
2377,287,3446,-191,88,41
2363,336,3537,-212,87,76
2348,402,3512,-201,102,87
2324,431,3500,-166,107,74
2287,424,3588,-153,107,58
2286,421,3609,-138,124,46
2262,386,3525,-117,145,30


1617,-84,4804,-246,455,-183
1517,-143,4692,-268,453,-164
1461,-117,4675,-275,447,-148
1425,-98,4608,-271,453,-152
1349,-148,4437,-269,454,-170
1302,-163,4411,-288,437,-183
1263,-101,4553,-297,424,-206
1314,28,4698,-245,441,-256
1395,66,4684,-185,496,-337
1474,-144,4445,-196,559,-416
1489,-567,4193,-268,592,-452
1400,-843,4103,-337,584,-400
1339,-737,4229,-394,565,-299
1317,-513,4276,-420,576,-239
1306,-449,4264,-416,590,-232
1275,-533,4239,-405,610,-242
1198,-640,4152,-380,643,-261
1180,-608,4086,-348,676,-273
1198,-550,4180,-276,701,-313
1181,-625,4287,-202,744,-376
1117,-730,4272,-132,803,-424
1062,-843,4194,-72,854,-445
1053,-865,4131,-22,879,-443
1024,-838,4154,4,893,-436
950,-845,4162,54,916,-442
882,-830,4169,139,937,-454
883,-759,4228,261,949,-476
866,-761,4221,297,972,-488
887,-765,4161,230,986,-471
944,-730,4316,197,984,-457
923,-820,4428,245,1013,-476
888,-926,4400,278,1065,-462
867,-929,4360,232,1121,-413
856,-985,4418,167,1187,-367
706,-1052,4385,182,1268,-337
511,-1031,4180,208,1346,-299
407,-942,3953,259,1387,-263
373,-799,3857,336,1389,-259
264,-811,3836,416,1385,-290
174,-811,3618,460,1393,-303
102,-854,3448,461,1365,-306
32,-784,3268,433,1302,-290
-63,-627,3145,357,1209,-272
-152,-694,3092,356,1111,-312
-292,-1144,2934,337,1028,-323
-329,-1415,2859,271,927,-234
-330,-1404,3018,271,835,-137
-407,-1199,3079,276,801,-58
-541,-986,2960,276,802,-16
-630,-965,2812,368,789,-41
-742,-1123,2662,525,763,-93
-742,-1123,2662,525,763,-93
-891,-1272,2331,627,721,-103
-968,-1323,2124,676,629,-86
-1001,-1254,2002,746,502,-49
-928,-784,2069,657,353,0
-936,-525,2302,533,224,-4
-955,-549,2314,437,133,-32
-998,-768,2174,336,44,-41
-1050,-951,2164,274,-73,-8
-1090,-909,2175,208,-194,67
-1120,-797,2072,129,-305,137
-1128,-670,2086,81,-438,172
-1132,-543,2234,74,-563,171
-1043,-487,2324,118,-663,140
-898,-431,2665,192,-757,103
-762,-394,2937,298,-801,63
-643,-402,3027,401,-821,37
-533,-282,3223,458,-854,43
-455,-103,3362,450,-868,66
-345,91,3433,391,-880,83
-233,119,3649,361,-903,65
-131,35,3795,349,-896,55
-79,2,3775,336,-872,76
-70,67,3579,325,-862,111
-59,154,3369,248,-885,159
-66,159,3222,128,-935,198
-74,93,3280,46,-998,205
8,89,3456,82,-1048,178
166,189,3686,168,-1072,136
369,220,3925,221,-1062,88
497,55,4085,243,-1026,56
527,-36,4194,275,-987,68
551,77,4134,272,-937,119
524,180,3918,230,-901,159
494,82,3730,191,-907,173
456,39,3684,172,-945,203
488,177,3655,153,-982,227
528,240,3670,127,-1019,214
590,280,3850,145,-1066,181
684,240,3901,179,-1072,133
777,49,3905,180,-1064,100
808,53,4122,218,-1059,105
857,332,4211,300,-1014,117
856,498,4009,358,-955,98
845,610,3857,320,-948,91
888,533,3806,242,-981,80
956,294,3833,187,-1027,77
996,56,3831,162,-1060,97
1031,1,3747,150,-1090,137
1131,188,3727,120,-1135,174
1252,150,4033,176,-1152,160
1431,-22,3885,398,-1145,132
1640,73,3884,450,-1165,167
1733,308,4211,408,-1170,198
1821,528,4472,460,-1118,164
1864,522,4475,509,-1033,98
1939,440,4369,479,-973,70
1951,303,4437,386,-948,88
1894,275,4462,311,-927,145
1814,340,4276,250,-896,210
1686,326,3951,206,-890,254
1644,531,3705,209,-936,281
1746,721,3728,167,-987,251
1873,598,3580,168,-1039,176
2024,522,3887,63,-1107,148
2109,367,4242,-22,-1102,137
2204,271,4301,44,-1040,132
2278,358,4057,61,-964,136
2246,318,3946,58,-942,132
2244,406,4163,75,-944,145
2244,406,4163,75,-944,145
2265,587,4329,98,-906,146
2335,759,4332,94,-854,126
2396,741,4279,57,-818,93
2434,617,4393,30,-805,76
2466,630,4554,33,-776,77
2477,696,4629,42,-718,72
2565,845,4553,55,-645,58
2591,906,4304,-31,-610,29
2531,723,4433,-107,-623,-6
2514,469,4510,-187,-601,-2
2488,230,4365,-201,-557,29
2484,201,4262,-125,-533,68
2516,328,4253,-29,-509,82
2556,468,4200,46,-473,62
2596,428,4060,115,-439,10
2669,268,4052,152,-428,-24
2773,175,4224,156,-416,-19
2847,254,4424,164,-370,0
2916,367,4509,174,-292,15
2895,408,4468,140,-209,32
2840,490,4373,67,-140,70
2762,538,4214,-9,-90,98
2689,496,4071,-80,-65,115
2672,457,4001,-139,-52,132
2662,401,3985,-189,-32,147
2616,407,4006,-207,-5,168
2579,445,4001,-194,40,176
2504,447,3894,-168,105,168
2443,465,3687,-144,155,156
2398,463,3508,-142,176,142
2335,407,3438,-152,171,129
2291,329,3378,-144,161,122
2252,278,3300,-146,151,128
2217,336,3309,-140,134,136
2177,410,3282,-113,125,128
2143,407,3184,-94,123,96
2132,321,3093,-83,110,59
2133,211,3090,-94,83,40
2123,181,3159,-124,53,51
2141,228,3197,-135,31,65
2175,252,3226,-142,12,64
2199,236,3289,-153,0,59
2218,244,3366,-170,-8,55
2229,264,3413,-194,-5,53
2229,228,3456,-214,0,43
2226,142,3428,-204,13,28
2241,118,3344,-192,19,27
2240,128,3304,-188,11,32
2219,80,3269,-168,-3,21
2265,12,3368,-137,-22,12
2359,27,3550,-97,-29,15
2367,63,3633,-68,-5,19
2329,110,3646,-62,25,22
2306,141,3566,-62,60,21
2270,68,3360,-63,82,9
2267,-41,3260,-80,70,9
2263,-41,3333,-100,41,32
2262,14,3369,-109,32,52
2274,1,3344,-101,35,52
2290,-45,3313,-86,32,51
2277,-70,3328,-88,25,66
2263,-19,3366,-88,22,80
2219,70,3378,-90,27,81
2213,164,3488,-94,32,69
2217,195,3518,-66,57,30
2203,127,3383,-45,85,-14
2184,10,3279,-59,82,-30
2183,-38,3288,-86,55,-13
2183,-38,3288,-86,55,-13
2176,-9,3359,-95,28,2
2167,52,3415,-94,19,8
2203,85,3395,-80,19,-1
2244,49,3410,-86,16,-16
2256,-3,3499,-95,15,-21
2243,-32,3540,-95,24,-15
2233,-49,3485,-87,43,-10
2222,-42,3425,-82,45,-3
2221,10,3487,-91,35,9


1344,-199,4721,79,612,-334
1368,-213,4763,97,620,-369
1426,-402,4830,112,642,-404
1384,-645,4881,146,677,-401
1321,-664,4815,187,726,-345
1312,-518,4669,225,764,-292
1356,-469,4633,219,796,-273
1427,-524,4589,207,829,-267
1397,-503,4576,162,857,-244
1343,-355,4650,199,889,-247
1240,-345,4548,258,955,-297
1115,-432,4227,266,1017,-337
995,-498,3942,259,1029,-361
863,-626,3785,275,994,-385
754,-818,3683,279,939,-376
708,-926,3646,263,870,-314
729,-785,3838,270,801,-240
826,-367,4255,253,788,-206
848,-174,4435,322,847,-273
834,-216,4326,390,925,-358
886,-428,4187,390,972,-405
864,-649,4235,359,985,-401
864,-649,4235,359,985,-401
780,-724,4386,294,1022,-340
701,-652,4438,320,1092,-291
625,-482,4275,378,1171,-269
538,-284,4150,411,1215,-270
456,-179,4108,437,1233,-303
366,-344,4027,409,1254,-333
252,-687,3863,329,1264,-305
140,-806,3714,223,1248,-206
34,-556,3595,186,1209,-110
-66,-234,3428,175,1156,-78
-151,-29,3313,164,1082,-111
-215,-69,3161,130,997,-188
-293,-323,3143,121,900,-265
-381,-465,3097,133,805,-293
-417,-466,3069,136,715,-298
-431,-586,3175,164,638,-305
-460,-816,3239,198,596,-286
-512,-869,3121,203,576,-218
-529,-684,2927,178,539,-142
-582,-675,2747,126,487,-112
-712,-797,2707,116,426,-93
-792,-795,2688,190,374,-73
-874,-790,2545,299,341,-83
-1029,-866,2216,367,293,-97
-1142,-886,2020,381,198,-90
-1164,-745,1896,416,73,-74
-1085,-429,2022,358,-71,-65
-1018,-199,2375,363,-204,-86
-885,25,2574,415,-286,-111
-756,-43,2642,410,-352,-135
-642,-345,2821,322,-408,-100
-649,-417,2753,230,-444,-2
-764,-175,2617,147,-500,95
-862,7,2603,102,-571,122
-865,3,2627,132,-643,89
-726,83,2781,212,-724,54
-517,193,3000,239,-790,30
-393,200,3057,217,-830,26
-281,104,3020,170,-874,39
-181,-14,3157,94,-916,73
-114,-84,3301,91,-920,97
-130,-112,3189,157,-896,104
-127,-51,2946,227,-907,106
-73,-107,2833,242,-960,93
26,-227,3029,217,-1035,105
103,-304,3177,233,-1078,136
136,-228,3129,296,-1098,161
236,18,3202,360,-1128,164
301,228,3400,414,-1156,134
356,393,3584,428,-1166,105
427,430,3556,417,-1165,78
500,295,3579,404,-1189,61
621,228,3671,419,-1213,66
699,215,3740,410,-1224,84
733,375,3767,427,-1239,105
834,487,3735,418,-1256,107
939,374,3754,398,-1284,91
1038,325,3938,436,-1306,84
1155,510,4125,475,-1292,89
1274,699,4236,504,-1266,81
1326,699,4168,501,-1233,67
1329,497,4000,434,-1221,80
1349,357,3986,339,-1234,145
1343,240,3851,268,-1240,217
1319,241,3529,208,-1266,285
1375,385,3799,200,-1311,326
1449,411,3587,395,-1314,311
1548,779,3509,513,-1354,300
1681,971,3789,458,-1372,251
1681,971,3789,458,-1372,251
1837,813,4058,442,-1353,175
1969,614,4228,489,-1309,123
2094,665,4406,522,-1258,122
2174,895,4490,557,-1201,126
2197,1055,4481,543,-1149,116
2242,1155,4561,495,-1110,114
2269,1169,4478,438,-1061,109
2255,1124,4462,335,-1029,119
2229,990,4274,232,-999,145
2197,851,4151,113,-1014,195
2185,807,4298,0,-1030,251
2244,957,4344,13,-1010,262
2300,1074,4257,47,-980,212
2344,1005,4331,43,-957,143
2397,854,4514,27,-907,108
2460,792,4453,65,-826,98
2454,731,4299,76,-759,98
2419,866,4306,103,-716,113
2370,915,4100,116,-663,104
2382,821,3716,41,-643,108
2372,649,3532,-91,-697,139
2383,560,3785,-204,-759,188
2359,505,3871,-243,-746,212
2367,548,3765,-215,-706,205
2478,661,3825,-153,-682,160
2614,713,3998,-80,-650,89
2731,720,4091,-34,-598,28
2862,690,4019,-17,-552,-4
2907,616,4103,-77,-530,-4
2896,523,4113,-119,-500,16
2904,473,4042,-116,-467,37
2881,449,3997,-111,-439,57
2839,482,3959,-87,-402,69
2854,536,4001,-24,-363,68
2865,556,4006,79,-315,50
2818,491,3924,133,-256,32
2822,606,3948,170,-209,42
2856,828,4081,188,-159,46
2873,851,4089,173,-95,28
2826,782,4072,128,-47,39
2735,794,4024,106,-12,76
2669,887,3863,72,18,111
2633,936,3709,26,36,123
2571,931,3661,-35,38,128
2543,937,3638,-69,42,124
2521,893,3559,-88,59,104
2524,817,3533,-112,73,85
2511,780,3521,-110,95,68
2475,748,3387,-115,121,57
2439,637,3156,-140,130,49
2403,486,3053,-173,100,59
2389,494,3075,-188,61,90
2399,621,3104,-191,40,102
2430,667,3131,-182,34,78
2463,563,3145,-180,37,45
2496,419,3200,-166,41,32
2504,382,3261,-143,55,43
2461,439,3253,-132,77,64
2426,533,3178,-115,96,67
2408,614,3166,-98,100,45
2364,592,3206,-87,100,6
2328,482,3103,-87,108,-24
2297,323,2948,-111,88,-26
2298,292,2995,-118,33,2
2363,368,3038,-121,-4,28
2415,408,3134,-144,-29,32
2457,401,3345,-136,-37,21
2492,399,3431,-113,-8,11
2465,346,3342,-117,32,8
2465,346,3342,-117,32,8
2396,348,3253,-112,50,17
2374,445,3217,-96,54,20
2312,494,3219,-79,46,5
2316,567,3299,-24,29,-14
2352,515,3232,1,30,-46
2346,337,3129,-20,20,-57
2370,305,3158,-46,-4,-29
2424,405,3289,-66,-25,2
2440,477,3362,-79,-20,12
2449,488,3326,-88,-4,6
2439,447,3291,-100,2,-1
2408,371,3266,-118,4,-1
2373,357,3246,-123,4,5
2378,428,3256,-109,1,10
2382,433,3296,-93,3,-3
2344,397,3306,-74,13,-20
2328,406,3270,-46,22,-32
2337,422,3213,-28,27,-48
2365,392,3166,-33,22,-57
2416,322,3175,-64,3,-55
2445,250,3255,-101,-16,-35
2479,260,3340,-119,-27,-8
2541,268,3370,-128,-23,9
2577,253,3412,-140,-11,21
2586,285,3428,-155,2,37
2611,330,3358,-164,18,45
2668,311,3255,-185,17,46
2640,145,3176,-226,-2,51
2574,-6,3110,-251,-38,80
2640,-4,3122,-253,-88,128
2766,-6,3297,-246,-135,163
2831,-37,3499,-203,-153,184
2962,74,3748,-169,-134,221
3088,163,3939,-103,-80,227
3121,178,3952,-82,4,222
3201,61,3846,-53,83,200
3231,-92,3763,-7,117,190


1069,-382,4509,256,1123,-524
1106,-592,4561,247,1173,-474
991,-659,4589,279,1238,-405
771,-455,4407,306,1308,-320
649,-8,4050,286,1356,-260
564,154,3590,187,1347,-285
431,-24,3479,112,1264,-364
342,-276,3676,132,1183,-445
319,-557,3875,230,1161,-499
264,-625,3823,337,1171,-490
163,-461,3746,413,1171,-457
121,-225,3658,405,1164,-428
53,-150,3651,366,1143,-429
-24,-249,3653,408,1124,-461
-117,-385,3616,395,1111,-450
-161,-349,3632,403,1093,-405
-277,-278,3512,420,1083,-381
-400,-237,3276,408,1061,-365
-476,-100,3062,383,989,-344
-510,-121,3212,418,876,-358
-495,-318,3390,507,805,-369
-542,-346,3452,493,773,-302
-624,-173,3398,451,760,-223
-718,-38,3208,417,740,-190
-807,-28,3146,410,689,-198
-879,-54,3185,427,634,-208
-971,-53,3208,471,593,-204
-1061,137,3103,508,557,-184
-1116,218,2997,525,508,-204
-1196,157,2871,541,445,-234
-1247,65,2738,422,371,-216
-1292,-204,2773,355,281,-193
-1296,-339,2875,416,197,-153
-1264,-166,2877,479,134,-91
-1233,115,2815,518,68,-50
-1204,378,2849,526,-2,-42
-1150,445,2856,474,-64,-54
-1130,359,2814,377,-126,-50
-1140,249,2751,292,-198,-26
-1126,174,2754,207,-275,19
-1091,211,2767,163,-348,68
-1060,217,2828,117,-409,106
-998,337,2955,109,-466,131
-952,378,3045,99,-497,131
-925,294,3059,121,-516,124
-901,201,3078,175,-542,123
-890,200,3165,224,-567,146
-887,477,3145,294,-585,176
-855,627,3010,359,-618,159
-851,544,2949,364,-678,141
-810,556,2989,346,-748,160
-754,684,3046,344,-810,178
-655,696,3130,367,-866,167
-571,639,3197,388,-919,164
-497,761,3297,409,-965,184
-342,952,3336,425,-1003,197
-184,1003,3472,382,-1042,206
-42,1064,3728,344,-1062,226
-1,1072,3741,295,-1038,236
-1,953,3604,241,-1025,240
-1,919,3615,227,-1037,250
0,928,3680,245,-1045,244
37,932,3645,276,-1047,226
37,932,3645,276,-1047,226
99,1058,3616,340,-1068,209
229,1259,3705,369,-1098,191
426,1186,3863,357,-1124,164
601,989,4156,265,-1131,194
645,976,4430,147,-1089,277
550,1125,4332,96,-1000,330
399,1153,3872,127,-934,314
339,1034,3565,208,-954,261
459,1108,3717,284,-1028,230
667,1114,3950,286,-1068,211
772,784,4074,221,-1071,214
780,546,4031,169,-1053,271
837,669,3891,173,-1039,340
960,926,3910,194,-1044,366
1077,1132,4065,244,-1032,341
1127,1207,4105,319,-984,288
1125,1253,3971,364,-937,254
1157,1194,3742,338,-926,254
1234,1080,3816,260,-959,287
1281,1072,4037,180,-971,330
1227,1115,3991,154,-932,356
1177,1280,3900,194,-900,345
1147,1333,3587,297,-879,277
1146,1206,3446,302,-916,233
1191,1030,3701,232,-966,248
1268,1118,3827,215,-974,288
1352,1262,3882,251,-970,292
1438,1528,4009,297,-967,281
1544,1616,4035,299,-941,241
1591,1368,4012,314,-916,196
1666,1444,4127,309,-903,223
1742,1773,4183,282,-877,253
1791,1790,4142,235,-848,228
1824,1607,4250,206,-834,201
1866,1645,4349,174,-799,216
1849,1673,4116,121,-747,223
1802,1443,3845,62,-732,211
1796,1251,3757,23,-746,216
1833,1172,3762,-16,-757,234
1859,1264,3862,-24,-758,241
1911,1325,3817,5,-725,203
1953,1111,3714,45,-693,147
1965,861,3645,56,-682,138
1948,860,3632,56,-679,173
1953,1067,3608,76,-671,201
2015,1177,3651,95,-667,189
2050,1230,3788,111,-656,164
2074,1227,3770,128,-617,133
2031,1091,3712,132,-588,112
1992,1126,3717,141,-576,119
2016,1236,3628,164,-560,109
2061,981,3535,166,-561,79
2094,852,3601,160,-589,112
2177,1165,3671,188,-614,165
2318,1335,3710,217,-619,154
2441,1278,3850,260,-623,112
2553,1280,3989,305,-599,85
2621,1228,4026,283,-542,84
2594,1181,3991,250,-467,102
2476,1264,3795,233,-388,128
2381,1449,3555,243,-334,125
2265,1456,3409,241,-308,80
2199,1307,3268,240,-297,43
2210,1137,3189,242,-311,46
2253,1111,3205,224,-340,89
2330,1275,3329,233,-366,132
2478,1588,3438,254,-371,148
2626,1805,3669,217,-360,128
2717,1778,3843,216,-313,82
2714,1644,3790,228,-242,52
2714,1644,3790,228,-242,52
2741,1655,3735,199,-179,63
2731,1653,3682,175,-124,70
2711,1727,3617,159,-82,79
2694,1758,3513,106,-48,80
2606,1662,3435,28,-33,82
2526,1596,3344,0,-26,86
2483,1590,3219,-12,-29,91
2467,1610,3253,-18,-48,86
2494,1659,3348,3,-56,58
2551,1656,3428,13,-45,29
2588,1657,3529,-5,-22,18
2610,1717,3675,-51,11,22
2536,1749,3699,-70,69,16
2449,1700,3437,-67,127,0
2347,1543,3197,-95,137,-5
2284,1417,3110,-132,116,7
2269,1352,3152,-173,89,31
2243,1370,3164,-198,78,51
2217,1460,3070,-212,72,59
2256,1514,3088,-212,57,36
2299,1372,3238,-207,56,-7
2278,1271,3324,-173,82,-33
2240,1311,3173,-135,121,-39
2166,1287,2944,-139,127,-50
2127,1194,2853,-166,95,-50
2155,1135,2930,-192,50,-40
2198,1127,3068,-218,21,-20
2211,1175,3131,-205,18,-5
2213,1154,3063,-171,23,-16
2219,1065,3070,-155,19,-27
2270,1098,3217,-144,20,-19
2310,1162,3242,-122,44,-19
2287,1204,3164,-110,67,-31
2270,1208,3091,-115,73,-41
2264,1187,3121,-118,64,-50
2234,1147,3134,-122,58,-50
2189,1076,3015,-136,53,-42
2149,1094,2920,-156,28,-23
2212,1179,2963,-195,-12,-10
2301,1117,3159,-240,-45,-12
2335,1030,3382,-280,-44,-3
2311,1057,3444,-282,-2,11
2253,1118,3272,-234,42,5
2229,1089,3118,-201,55,-17
2219,1019,3130,-219,41,-25
2225,1000,3204,-257,30,-15
2251,1013,3253,-289,28,-5
2265,978,3242,-316,31,0
2242,943,3238,-392,34,17
2219,896,3211,-464,33,47
2182,941,3161,-493,24,69
2170,975,3207,-528,16,65
2175,895,3213,-528,18,45
2191,851,3259,-506,12,42
2226,876,3319,-497,16,48
2241,893,3312,-510,24,53
2246,908,3278,-467,19,46
2265,868,3276,-430,6,36
2297,813,3329,-415,-6,30
2334,762,3389,-401,-14,36
2361,691,3357,-398,-6,47
2394,633,3407,-448,0,73
2418,684,3582,-461,17,97
2421,811,3648,-414,57,92
2397,851,3534,-371,104,57


1037,241,4774,-250,494,-377
1025,235,4864,-234,532,-374
1006,277,4890,-165,597,-400
979,298,4866,-81,662,-441
954,255,4768,-18,720,-478
862,81,4578,-16,762,-498
728,-76,4403,-12,774,-488
629,1,4307,-24,764,-447
602,187,4335,-49,747,-430
589,265,4444,-46,742,-461
577,201,4487,-26,759,-504
572,126,4542,8,779,-535
574,27,4530,56,815,-564
557,-10,4491,89,852,-573
517,71,4497,130,876,-577
478,71,4440,170,901,-588
410,-12,4342,195,914,-593
353,-57,4318,232,910,-585
343,-134,4322,251,909,-571
332,-103,4340,242,917,-546
292,-54,4333,220,940,-535
260,-64,4264,224,969,-545
237,-155,4168,226,987,-549
207,-200,4264,257,995,-538
165,-107,4267,286,1034,-522
59,-57,4019,311,1088,-534
-122,-117,3597,304,1114,-550
-283,-239,3179,266,1072,-549
-425,-380,2909,226,972,-534
-543,-552,2694,140,842,-494
-585,-629,2817,93,698,-439
-587,-603,2957,163,598,-412
-578,-579,2995,245,542,-406
-525,-470,3167,351,491,-414
-422,-261,3430,448,470,-433
-329,-242,3497,503,495,-466
-365,-612,3291,472,528,-469
-552,-912,3171,442,525,-390
-752,-864,3018,523,511,-279
-976,-696,2531,568,489,-181
-1100,-594,2158,541,397,-117
-1106,-519,2071,615,249,-100
-1106,-519,2071,615,249,-100
-950,-95,2258,545,97,-87
-891,-3,2631,445,-11,-147
-846,-67,2909,451,-60,-209
-843,-313,2803,481,-70,-247
-872,-511,2553,450,-106,-206
-871,-394,2446,331,-189,-108
-799,-252,2684,193,-288,-23
-798,-179,2932,152,-335,14
-861,-81,2840,186,-343,27
-884,118,2758,244,-379,21
-857,159,2730,277,-437,-1
-805,34,2653,251,-505,0
-739,21,2766,196,-593,43
-654,253,2949,201,-655,81
-569,455,2985,226,-683,82
-504,433,2984,192,-716,76
-475,424,2993,122,-759,103
-470,455,2963,50,-807,142
-442,263,2975,-27,-864,173
-452,72,2951,-55,-913,212
-427,91,2873,-38,-953,247
-352,171,2949,5,-999,247
-211,413,3136,123,-1038,213
-35,573,3313,200,-1063,166
107,563,3514,223,-1083,138
186,352,3602,215,-1085,132
268,288,3574,191,-1081,182
303,351,3524,135,-1084,242
275,495,3639,97,-1099,278
263,698,3791,132,-1097,268
304,777,3743,197,-1090,219
339,607,3784,192,-1106,189
389,564,3798,138,-1133,225
523,775,3792,55,-1167,279
643,765,3926,-19,-1206,285
705,732,4101,-39,-1219,276
797,762,4135,-24,-1204,257
888,781,4067,-18,-1196,235
924,665,4026,-54,-1208,224
957,441,3929,-103,-1218,234
988,130,3772,-119,-1236,252
1156,-40,3888,-88,-1269,283
1372,208,4354,-17,-1273,321
1522,694,4573,39,-1203,326
1508,851,4527,56,-1118,265
1526,883,4682,106,-1056,199
1528,841,4203,206,-1004,149
1555,721,4113,101,-1035,153
1502,415,4356,-47,-1062,192
1368,398,4289,-70,-1030,249
1255,521,3883,-22,-997,261
1222,567,3688,38,-1038,224
1435,816,4046,80,-1108,193
1764,1039,4464,145,-1120,129
1933,920,4676,176,-1076,69
2053,857,4757,139,-1016,82
2074,816,4560,63,-950,112
1969,655,4269,-31,-923,139
1910,671,4311,-82,-935,165
1986,892,4390,-41,-935,137
2161,996,4655,15,-917,68
2377,906,4895,84,-873,1
2516,769,5043,69,-802,-3
2513,706,5157,0,-710,29
2366,697,4961,-43,-592,59
2194,616,4504,-53,-506,54
2055,590,4333,-21,-496,34
2035,595,4308,3,-510,14
2098,464,4324,-2,-527,0
2098,464,4324,-2,-527,0
2189,390,4365,-13,-538,9
2278,344,4274,-23,-542,20
2434,241,4289,-49,-549,23
2580,80,4616,-35,-533,19
2671,140,4910,79,-448,18
2657,339,4857,217,-311,5
2559,444,4550,263,-182,-6
2449,429,4279,254,-116,-1
2346,468,4167,243,-103,24
