acc_X,acc_Y,acc_Z,gyro_X,gyro_Y,gyro_Z
158,649,5200,-210,618,262
58,730,5048,-274,684,286
-9,816,4906,-273,713,283
-73,883,4907,-285,719,262
-87,849,4944,-321,742,228
-149,644,4800,-375,778,203
-204,521,4775,-414,787,213
-223,463,4740,-465,801,242
-196,340,4763,-569,832,287
-235,371,4849,-596,860,337
-303,732,5064,-553,902,375
-350,1081,5254,-437,981,336
-426,1236,5119,-282,1080,246
-535,1190,4842,-242,1161,160
-535,1190,4842,-242,1161,160
-636,1113,4594,-257,1195,113
-688,1082,4393,-258,1182,77
-742,1091,4218,-272,1132,54
-708,1250,4192,-296,1067,38
-610,1413,4380,-255,1007,-27
-476,1525,4534,-206,982,-121
-395,1508,4491,-240,987,-208
-430,1458,4454,-329,994,-262
-463,1469,4502,-363,997,-306
-491,1433,4461,-315,996,-349
-532,1490,4483,-241,999,-381
-647,1630,4250,-193,1021,-420
-810,1752,3874,-210,1021,-475
-953,1636,3533,-256,967,-561
-1020,1353,3505,-239,872,-645
-1010,1208,3540,-214,806,-681
-968,1329,3381,-335,781,-697
-977,1223,3263,-438,730,-753
-968,989,3260,-548,678,-784
-1027,840,3213,-629,644,-792
-1118,978,3136,-664,622,-796
-1164,1118,2955,-695,601,-845
-1192,906,2819,-737,564,-942
-1249,520,2784,-769,506,-1009
-1315,328,2778,-797,452,-1019
-1379,356,2704,-816,414,-1017
-1393,374,2531,-844,371,-1043
-1355,171,2349,-887,299,-1100
-1335,-226,2279,-965,198,-1138
-1338,-437,2535,-1031,113,-1125
-1348,-361,2585,-1016,75,-1107
-1281,-220,2414,-1009,37,-1128
-1225,-431,2283,-1065,-30,-1196
-1291,-878,2216,-1110,-122,-1243
-1318,-1091,2144,-1119,-218,-1225
-1245,-1171,2169,-1101,-308,-1213
-1200,-1443,2085,-1031,-393,-1233
-1132,-1666,2048,-923,-483,-1243
-1061,-1862,2060,-832,-557,-1232
-952,-2065,1997,-760,-626,-1211
-892,-2298,1985,-749,-712,-1168
-806,-2294,2267,-738,-816,-1090
-729,-2262,2619,-671,-879,-1044
-776,-2266,2864,-591,-888,-1007
-766,-2127,2918,-533,-870,-953
-682,-2246,3043,-482,-881,-934
-751,-2483,3339,-407,-908,-885
-821,-2328,3413,-288,-898,-771
-752,-1978,3195,-199,-882,-694
-676,-1969,2996,-193,-915,-699
-573,-2283,2983,-249,-998,-711
-465,-2689,3175,-294,-1098,-674
-308,-2871,3548,-268,-1189,-575
-139,-2906,3798,-181,-1222,-473
-45,-3053,3907,-117,-1196,-384
-16,-3261,3726,-56,-1145,-273
-22,-3398,3632,-10,-1120,-151
-56,-3446,3850,69,-1110,-31
-170,-3316,4098,214,-1071,90
-68,-2526,4240,276,-998,183
-75,-2811,4109,406,-920,120
-32,-3444,3738,567,-931,147
61,-3390,4035,621,-998,306
112,-2899,4364,672,-1006,462
186,-2491,4311,709,-964,535
197,-2365,4232,707,-952,546
293,-2333,4543,709,-976,557
459,-2463,5094,753,-933,589
459,-2463,5094,753,-933,589
547,-2719,4961,852,-811,664
531,-2622,4795,955,-723,797
453,-2166,4645,1052,-668,913
388,-1633,4460,1084,-643,961
335,-1334,4410,1031,-653,955
321,-1344,4538,977,-677,922
329,-1418,4560,983,-675,905
333,-1281,4411,948,-659,925
371,-1136,4498,940,-666,922
448,-1147,4752,998,-659,912
566,-953,4921,1072,-617,945
648,-631,5001,1073,-543,983
584,-249,4978,1047,-475,994
510,51,4756,1005,-425,957
404,-33,4491,931,-416,895
362,-95,4329,807,-448,878
356,-116,4289,717,-500,869
384,-75,4276,673,-545,857
449,0,4427,682,-578,828
477,188,4666,710,-576,793
504,368,4703,732,-532,751
449,362,4576,684,-489,722
435,490,4563,604,-486,721
453,465,4640,573,-486,684
429,504,4606,533,-470,669
401,596,4427,487,-465,659
372,630,4190,430,-491,628
423,468,4117,385,-551,581
473,209,4204,394,-601,536
554,182,4293,447,-608,511
652,287,4248,495,-588,478
734,273,4303,515,-577,432
798,289,4385,528,-558,402
780,386,4425,531,-522,375
713,538,4390,531,-489,339
668,607,4244,519,-478,295
639,507,4238,460,-504,258
685,365,4310,410,-530,244
733,310,4470,412,-568,252
745,399,4560,411,-562,263
757,557,4453,428,-538,239
770,241,4382,452,-526,174
833,57,4453,521,-532,174
893,317,4573,532,-508,195
904,480,4746,523,-469,176
939,550,4942,565,-412,129
890,528,4951,622,-335,88
827,654,4820,623,-276,81
794,767,4791,599,-260,69
790,780,4754,533,-258,58
816,803,4699,460,-271,47
848,917,4778,397,-293,25
894,1095,5130,356,-285,-17
950,1303,5323,353,-221,-82
1006,1455,5298,330,-137,-159
1022,1556,5260,259,-72,-234
993,1571,5193,151,-32,-294
1004,1602,5036,12,-18,-324
996,1589,4965,-149,-38,-345
990,1596,4992,-324,-56,-356
1019,1540,4917,-473,-45,-387
1017,1455,4832,-577,-34,-433
1049,1451,4847,-650,-17,-481
1073,1251,4714,-696,18,-547
1044,902,4398,-735,51,-597
974,808,4233,-758,52,-611
991,923,4179,-772,44,-634
1017,822,4144,-788,44,-698
1038,632,4196,-790,54,-756
1038,632,4196,-790,54,-756
996,429,4204,-788,80,-783
944,509,4003,-793,107,-777
919,441,3860,-809,97,-802
870,250,3968,-780,67,-834
902,329,4071,-700,65,-858
986,284,4023,-652,81,-903
1029,-16,3959,-643,75,-932
1021,-171,4092,-627,61,-920
1045,97,4197,-584,77,-908
1096,201,4098,-572,106,-954
1079,-81,4055,-563,109,-1018
1068,-170,4071,-552,104,-1031
1045,-273,3970,-566,99,-1030
1052,-394,3984,-610,70,-1005
1119,-432,4120,-620,44,-968
1170,-347,4224,-645,42,-932
1125,-398,4109,-677,63,-929
1128,-518,4163,-639,62,-942
1112,-724,4072,-625,86,-952
1088,-906,3964,-579,93,-941
1108,-1024,3900,-535,79,-919
1061,-1176,3814,-541,56,-880
1057,-1174,3911,-520,10,-821
1085,-1056,4009,-500,-10,-784
1087,-1193,4026,-477,-10,-781
1145,-1286,3996,-443,-6,-763
1163,-1354,3975,-427,-11,-736
1216,-1382,4069,-407,-26,-696
1272,-1635,4083,-407,-20,-658
1245,-1910,4009,-361,-21,-590
1242,-1818,4177,-303,-26,-501
1204,-1672,4306,-226,0,-442
1180,-1456,4253,-175,32,-399
1180,-1505,4057,-173,44,-377
1117,-1736,3984,-204,19,-333
1095,-1632,4087,-182,-17,-257
1155,-1493,4122,-146,-26,-207
1155,-1440,4094,-132,-29,-174
1173,-1289,4165,-137,-30,-146
1150,-1279,4149,-129,-24,-136
1151,-1247,4174,-133,-16,-120
1122,-1207,4180,-144,-7,-97
1088,-1067,4181,-167,-7,-60
1070,-953,4144,-214,-16,-32
1039,-866,4125,-279,-29,-17
1024,-892,4249,-312,-42,-26


-76,512,4962,125,403,301
-85,692,4890,102,448,301
-97,926,4883,59,479,279
-157,1050,4854,14,508,230
-240,1002,4808,-12,527,174
-295,872,4768,-72,545,151
-301,855,4775,-117,550,162
-280,903,4782,-144,558,170
-235,907,4833,-212,579,175
-184,1002,4936,-292,613,186
-222,958,4974,-367,673,178
-305,1194,4918,-387,743,184
-306,1495,4839,-335,797,127
-273,1689,4908,-49,815,-44
-686,1368,4286,67,849,-203
-786,1106,4019,-251,838,-146
-692,1340,4127,-433,779,-107
-688,1325,4173,-602,754,-122
-679,1470,4131,-669,724,-152
-675,1520,4015,-746,694,-222
-637,1244,3982,-856,656,-295
-655,922,4002,-945,618,-323
-662,983,3990,-1020,604,-303
-662,983,3990,-1020,604,-303
-694,1157,3963,-1102,605,-309
-762,1243,3892,-1140,610,-371
-812,1196,3852,-1105,609,-469
-897,994,3741,-1081,610,-554
-977,862,3635,-1049,599,-599
-1072,602,3279,-1015,573,-631
-1138,440,3064,-983,494,-633
-1145,541,3005,-957,389,-630
-1125,600,2994,-957,288,-664
-1097,500,2983,-983,200,-720
-1104,316,2948,-1051,123,-766
-1074,229,2931,-1144,46,-790
-1038,166,2929,-1231,-30,-816
-993,33,2938,-1314,-97,-851
-967,-135,3074,-1301,-156,-908
-929,-243,3160,-1218,-185,-967
-848,-387,3022,-1197,-202,-1005
-812,-767,2959,-1203,-250,-1034
-801,-1028,2930,-1187,-301,-1017
-769,-1054,3030,-1122,-350,-990
-728,-1019,3058,-1028,-379,-989
-661,-1165,2829,-1000,-395,-1011
-580,-1457,2810,-973,-462,-1027
-532,-1581,2925,-929,-529,-1007
-478,-1578,3030,-893,-572,-983
-457,-1779,3082,-849,-590,-982
-472,-2130,3115,-736,-594,-977
-514,-2292,3010,-577,-598,-926
-479,-2145,2952,-512,-638,-830
-446,-2125,2987,-474,-701,-767
-424,-2071,3147,-421,-771,-716
-345,-2013,3434,-347,-820,-684
-294,-2042,3668,-271,-807,-675
-244,-2075,3643,-176,-754,-668
-178,-2140,3466,-121,-725,-646
-128,-2146,3530,-132,-753,-615
-45,-2310,3750,-188,-787,-587
-15,-2550,3886,-249,-795,-537
-48,-2451,3867,-307,-795,-456
-13,-2449,3817,-364,-807,-415
-21,-2788,3797,-411,-834,-391
-21,-2934,3939,-367,-860,-331
-18,-2960,3974,-253,-859,-279
16,-2905,3830,-157,-861,-224
140,-2938,3746,-90,-888,-183
260,-3201,3809,-44,-931,-144
369,-3269,3986,17,-960,-58
484,-3100,4127,80,-958,44
550,-3121,4124,140,-925,113
597,-3079,4094,214,-887,190
660,-2793,4190,268,-859,272
707,-2611,4338,325,-819,314
720,-2450,4397,374,-761,346
748,-2289,4366,418,-720,374
735,-2277,4247,426,-682,395
708,-2326,4034,402,-671,426
703,-2556,4021,392,-687,474
711,-2650,4053,484,-686,549
747,-2344,4005,615,-672,626
779,-1985,4157,725,-652,657
822,-1743,4141,834,-619,651
891,-1680,4023,863,-604,647
880,-1732,4176,902,-618,652
901,-1509,4350,1005,-599,671
926,-1275,4304,1078,-548,672
921,-1101,4394,1120,-519,666
938,-934,4489,1130,-485,668
890,-932,4289,1121,-445,676
890,-932,4289,1121,-445,676
816,-889,4142,1124,-446,699
838,-723,4084,1117,-469,729
846,-796,4009,1056,-488,746
809,-667,4170,1062,-519,773
825,-277,4290,1122,-516,776
847,-83,4317,1175,-491,728
855,-112,4231,1212,-475,675
867,101,4230,1225,-472,653
856,338,4322,1173,-468,603
823,354,4412,1130,-462,545
818,433,4433,1105,-451,498
771,389,4421,1099,-450,448
742,322,4317,1069,-452,430
711,496,4304,917,-462,453
686,978,4292,791,-485,447
738,1155,4261,695,-527,356
809,849,4509,604,-582,249
905,575,4661,581,-583,194
899,591,4672,550,-540,197
941,1034,4414,545,-498,197
985,1165,4081,490,-511,95
967,688,4444,486,-585,5
1013,893,4642,418,-565,20
896,990,4271,313,-511,-8
844,977,4196,254,-529,-58
980,1011,4510,217,-551,-107
1042,970,4691,149,-521,-148
1043,957,4651,112,-475,-174
1057,984,4672,80,-447,-195
1102,1082,4821,57,-419,-227
1160,1161,4901,48,-366,-284
1197,1142,4886,30,-295,-353
1210,1101,4813,-15,-241,-408
1230,1075,4903,-70,-214,-442
1283,1154,5012,-120,-181,-462
1362,1186,5065,-190,-134,-500
1385,1060,5014,-277,-88,-531
1398,940,4833,-358,-48,-545
1382,784,4504,-437,-53,-562
1387,693,4711,-510,-94,-578
1395,675,4814,-548,-75,-590
1428,634,4687,-587,-30,-624
1450,402,4579,-611,-1,-676
1466,152,4594,-606,19,-708
1498,105,4586,-598,55,-712
1508,138,4563,-592,93,-722
1460,176,4477,-606,131,-743
1420,17,4325,-613,155,-769
1364,-138,4136,-653,157,-777
1331,-262,4007,-678,136,-789
1393,-418,4145,-666,105,-799
1391,-398,4300,-664,111,-794
1326,-216,4171,-640,153,-801
1263,-324,3853,-632,168,-852
1203,-534,3855,-628,134,-891
1242,-539,3870,-636,114,-899
1282,-786,3771,-633,96,-911
1306,-954,3747,-644,71,-886
1277,-1029,3825,-624,44,-843
1253,-882,3997,-592,38,-793
1281,-762,3990,-537,52,-779
1259,-885,3833,-533,61,-787
1218,-1040,3899,-533,45,-778
1233,-1208,3835,-496,46,-750
1258,-1236,3697,-450,23,-708
1306,-1025,3789,-452,-14,-675
1344,-1094,4002,-443,-45,-677
1425,-1295,4090,-437,-33,-663
1446,-1543,4005,-413,-19,-625
1446,-1543,4005,-413,-19,-625
1505,-1652,4019,-390,-15,-563
1536,-1716,4042,-373,-8,-497
1521,-1716,4142,-308,-1,-441
1568,-1542,4245,-250,29,-400
1546,-1630,4123,-221,69,-390
1523,-1871,3978,-173,79,-369
1514,-2142,3949,-130,66,-304
1533,-2154,3948,-95,65,-203
1536,-1811,3845,-36,68,-128
1486,-1669,3784,20,51,-123
1481,-1493,4063,34,27,-122
1433,-1504,4175,71,29,-123
1443,-1619,4088,76,42,-85
1418,-1620,3995,72,26,-19
1413,-1449,4170,111,2,29
1437,-1219,4373,172,29,42
1398,-1218,4332,229,86,34
1366,-1019,4301,231,128,58
1271,-755,4125,174,145,77
1186,-723,3977,89,116,76
1134,-852,4095,46,67,71
1086,-870,4205,55,53,94
1049,-646,4138,63,62,125
1056,-523,4096,75,56,116
1057,-549,4131,85,38,101
1076,-531,4132,61,27,107
1071,-514,4177,27,17,114
1040,-515,4199,12,17,116
1011,-535,4017,7,23,114
1022,-491,3978,-4,0,109
1044,-457,4033,-15,-29,90
1078,-456,4075,-23,-47,63
1105,-566,4153,-16,-58,32
1128,-692,4244,15,-57,17
1164,-688,4225,58,-43,25
1225,-600,4268,86,-39,30
1268,-592,4391,89,-32,32


-9,17,4574,640,-92,-39
-58,206,4632,747,-38,-10
-81,248,4769,823,14,1
-11,185,4842,855,83,32
64,89,4914,802,151,110
137,113,5112,712,217,229
95,514,5333,642,308,347
4,1049,5404,615,433,382
-73,1240,5235,612,558,322
-182,1231,5021,592,629,259
-302,1211,4806,544,651,224
-429,1160,4682,431,628,220
-488,1052,4725,326,593,227
-488,1191,4917,280,581,243
-471,1346,4822,257,615,228
-441,1237,4736,168,637,205
-420,1028,4811,77,645,210
-497,1094,4896,-16,683,259
-575,1403,4830,-107,756,302
-595,1685,4741,-172,818,281
-586,1868,4627,-160,867,191
-633,1773,4281,-191,894,90
-612,1634,4232,-224,857,22
-550,1638,4523,-261,822,-15
-475,1853,4839,-218,845,-52
-506,1961,4719,-212,932,-112
-615,1996,4358,-287,1002,-165
-780,2081,3930,-458,1012,-200
-924,2294,3662,-690,951,-237
-1034,2312,3515,-957,861,-303
-1088,2113,3340,-1229,762,-375
-1099,1848,3354,-1435,646,-443
-1059,1750,3535,-1580,556,-495
-1065,1521,3583,-1651,513,-559
-1087,1191,3519,-1649,495,-609
-1170,901,3331,-1632,482,-632
-1190,651,3184,-1586,447,-642
-1191,442,3236,-1477,392,-653
-1173,340,3320,-1377,358,-644
-1184,311,3302,-1306,349,-634
-1244,507,3214,-1239,339,-640
-1273,648,3019,-1212,318,-692
-1278,496,2891,-1224,261,-780
-1235,202,2989,-1264,172,-837
-1177,43,3162,-1311,100,-852
-1134,1,3173,-1402,61,-849
-1086,-227,3152,-1496,20,-867
-1104,-577,3233,-1562,-20,-877
-1119,-650,3334,-1468,-44,-891
-1142,-760,3228,-1390,-40,-908
-1152,-1071,3065,-1346,-53,-911
-1150,-1292,3113,-1242,-92,-895
-1197,-1312,3056,-1122,-118,-860
-1195,-1205,2765,-1046,-152,-836
-1176,-1316,2574,-985,-233,-863
-1142,-1603,2588,-903,-340,-892
-1053,-1725,2559,-831,-441,-880
-949,-1714,2580,-807,-544,-862
-834,-1797,2778,-790,-640,-868
-743,-1985,3171,-785,-704,-865
-687,-2179,3464,-787,-705,-827
-660,-2327,3530,-777,-659,-757
-660,-2327,3530,-777,-659,-757
-688,-2250,3428,-690,-602,-690
-741,-2049,3282,-569,-576,-652
-762,-1990,3203,-448,-589,-655
-703,-2220,3209,-354,-625,-671
-614,-2588,3273,-332,-672,-619
-557,-2527,3446,-313,-724,-496
-512,-2104,3624,-280,-760,-400
-508,-1868,3674,-277,-764,-387
-441,-2071,3675,-298,-755,-425
-442,-2560,3504,-349,-743,-421
-506,-2702,3481,-365,-759,-344
-531,-2811,3495,-300,-771,-292
-503,-3093,3618,-164,-779,-248
-474,-2968,3717,-1,-756,-152
-436,-2578,3637,138,-736,-76
-437,-2657,3462,208,-738,-65
-444,-2915,3592,261,-785,-25
-366,-2842,3919,351,-814,50
-256,-2692,3874,418,-791,119
-151,-2680,3829,427,-791,169
-123,-2655,3968,463,-810,218
-119,-2507,3832,488,-811,266
-83,-2667,3994,512,-826,277
-1,-2738,4322,627,-815,317
120,-2601,4182,748,-753,391
160,-2533,4083,807,-738,458
200,-2475,4402,890,-746,526
204,-2425,4509,1000,-691,604
161,-2231,4239,1142,-628,678
156,-1932,4204,1293,-623,729
177,-1407,4452,1410,-618,768
210,-806,4368,1430,-574,754
175,-803,4158,1363,-567,685
173,-871,4255,1273,-589,654
192,-770,4193,1238,-594,643
264,-785,4230,1235,-606,627
246,-908,4147,1230,-596,634
217,-808,3842,1264,-598,669
249,-771,3702,1365,-644,678
259,-659,3863,1497,-697,689
302,52,4252,1687,-706,679
291,711,4363,1833,-650,594
282,1014,4301,1777,-587,484
367,765,4247,1665,-570,377
383,238,4292,1616,-580,330
369,223,4267,1592,-576,386
296,314,4066,1566,-566,443
264,520,4012,1503,-584,489
275,781,4226,1443,-624,513
293,932,4246,1407,-642,516
331,874,4199,1323,-666,513
487,907,4453,1247,-699,523
587,957,4650,1198,-677,520
561,1430,4760,1185,-616,500
473,1729,4620,1190,-526,393
437,1528,4436,1174,-478,259
509,1380,4394,1145,-474,189
530,1078,4201,1089,-488,170
485,998,4106,1050,-543,208
434,1731,4362,1034,-600,244
545,2215,4472,992,-602,154
659,1636,4532,923,-595,8
729,1186,4621,877,-584,-23
750,1154,4540,863,-554,16
777,1464,4591,827,-538,54
826,1683,4466,752,-511,46
884,1604,4558,624,-515,10
960,1478,4698,541,-507,-8
1005,1564,4488,412,-482,-6
1005,1564,4488,412,-482,-6
971,1235,4491,258,-494,-24
1036,1086,4794,220,-489,-6
1072,1165,4770,239,-422,7
1030,1319,4637,255,-366,-6
1066,1527,4762,248,-343,-42
1134,1539,4853,223,-303,-85
1166,1334,4739,151,-251,-105
1192,1272,4795,57,-221,-84
1197,1444,4911,-11,-181,-54
1193,1728,4926,-68,-130,-51
1146,1853,4746,-141,-77,-88
1112,1889,4641,-207,-64,-149
1115,1925,4716,-287,-56,-217
1102,1976,4744,-326,-32,-294
1141,2172,4805,-354,-6,-372
1155,2212,4544,-456,15,-442
1135,2130,4402,-632,-7,-495
1103,1909,4431,-809,-35,-533
1060,1650,4321,-937,-36,-562
1025,1448,4169,-1031,-38,-584
972,1227,4102,-1096,-49,-606
909,1094,3974,-1136,-50,-623
887,1184,3883,-1147,-57,-651
941,1070,3783,-1184,-74,-712
1012,600,3833,-1260,-105,-761
1054,375,4132,-1255,-128,-742
1026,649,4356,-1165,-100,-702
1043,820,4159,-1072,-45,-721
1022,644,3955,-1072,-37,-760
978,435,4083,-1100,-55,-770
960,170,4004,-1083,-49,-764
924,-39,3847,-1046,-56,-738
898,88,3874,-996,-80,-713
919,215,3969,-929,-96,-734
1020,14,4041,-864,-97,-776
1125,-313,4166,-833,-99,-773
1156,-301,4252,-837,-92,-704
1195,-100,4389,-827,-76,-657
1224,-273,4356,-822,-30,-660
1199,-264,4304,-793,1,-651
1206,-198,4211,-749,20,-657
1142,-532,3996,-776,22,-670
1098,-620,4044,-736,-14,-645
1099,-690,4022,-730,-33,-617
1081,-896,3934,-736,-55,-583
1111,-1038,4058,-744,-85,-530
1161,-1098,4129,-698,-91,-487
1189,-1212,4082,-656,-76,-451
1162,-1265,4103,-630,-66,-404
1169,-1224,4169,-568,-59,-354
1182,-1333,4111,-505,-43,-321
1168,-1514,4060,-462,-38,-272
1114,-1407,4142,-404,-42,-213
1123,-1307,4108,-320,-39,-181
1113,-1362,4186,-259,-41,-169
1076,-1235,4296,-176,-39,-146
1072,-985,4286,-108,-26,-130
1090,-1070,4170,-74,-26,-132
1156,-1263,4225,-64,-51,-110
1197,-1248,4399,-42,-59,-57
1167,-1052,4395,-11,-29,-19
1157,-900,4345,34,0,-16
1185,-916,4317,39,17,-18
1174,-1001,4263,-5,30,5
1095,-897,4236,-75,33,72
1033,-592,4177,-96,26,118
983,-386,4255,-55,10,101


194,796,5133,620,462,418
59,1120,5042,564,542,391
-49,1395,4743,515,588,320
-108,1308,4599,411,573,225
-76,1031,4899,320,544,161
-15,801,5202,305,570,164
-12,787,5113,244,646,244
9,1037,4993,129,705,337
36,1139,4985,37,744,368
-66,1075,4999,-28,794,378
-151,1385,4971,-55,860,394
-249,1707,4745,-97,934,355
-335,1768,4610,-135,965,256
-322,1546,4686,-186,987,149
-362,1207,4664,-269,1039,103
-485,1147,4541,-315,1090,120
-572,1377,4418,-253,1125,116
-632,1564,4325,-153,1146,57
-772,1584,4092,-74,1153,-35
-921,1445,3892,-127,1139,-87
-886,1236,3834,-269,1112,-86
-867,1140,3877,-391,1085,-67
-960,1405,3643,-459,1064,-56
-1056,1614,3310,-485,1003,-124
-1128,1432,3266,-520,891,-234
-1103,1282,3389,-547,770,-301
-1048,1232,3590,-555,679,-360
-1079,1110,3609,-616,643,-403
-1113,1061,3607,-667,618,-427
-1129,1332,3588,-698,595,-449
-1125,1499,3555,-738,571,-523
-1109,1253,3536,-805,544,-612
-1109,1253,3536,-805,544,-612
-1138,984,3408,-883,516,-650
-1277,933,3207,-972,475,-654
-1383,1163,3095,-1065,410,-671
-1420,1013,3028,-1165,343,-754
-1440,695,3135,-1199,274,-834
-1419,591,3120,-1197,225,-875
-1393,309,3003,-1231,167,-908
-1345,103,3062,-1279,83,-896
-1297,146,3229,-1330,18,-882
-1275,28,3376,-1368,-2,-903
-1252,-194,3319,-1286,4,-955
-1325,-575,3105,-1175,13,-1001
-1380,-452,2959,-1068,-23,-994
-1324,-103,2969,-1038,-86,-1009
-1250,-289,2867,-1061,-142,-1079
-1197,-628,2746,-1106,-222,-1126
-1189,-852,2651,-1195,-322,-1130
-1189,-1037,2653,-1276,-429,-1125
-1177,-1186,2661,-1320,-521,-1117
-1054,-1610,2612,-1269,-606,-1135
-1025,-2277,2679,-1159,-682,-1126
-1046,-2313,2759,-1020,-734,-1020
-975,-2097,2712,-915,-765,-932
-907,-2038,2726,-834,-810,-902
-784,-1981,2809,-777,-857,-892
-670,-2435,2812,-759,-897,-901
-665,-3031,3100,-718,-958,-846
-636,-3141,3604,-597,-975,-724
-620,-3015,3784,-441,-903,-613
-610,-2859,3689,-286,-821,-546
-599,-2768,3577,-162,-790,-503
-562,-2769,3608,-87,-804,-459
-515,-2708,3782,-43,-833,-397
-452,-2704,4030,20,-843,-350
-385,-2899,4112,47,-825,-279
-333,-2978,4274,70,-812,-172
-278,-2809,4355,116,-775,-69
-262,-2738,4150,154,-724,-10
-226,-2796,4032,187,-713,17
-210,-2826,4077,261,-720,40
-165,-2635,4150,366,-716,65
-185,-2946,4110,450,-676,78
-140,-3007,3889,584,-659,154
-113,-2616,3724,628,-678,243
-106,-2394,3710,591,-721,274
-47,-2535,4067,589,-764,286
69,-2520,4114,606,-740,360
103,-2398,3908,596,-720,452
144,-2270,3963,610,-740,516
229,-2182,4022,658,-737,556
304,-2170,4086,731,-717,582
347,-1991,4144,831,-680,613
374,-1603,4186,903,-624,633
340,-1399,4170,992,-562,605
339,-1204,4190,1080,-526,584
369,-1170,4281,1121,-486,587
377,-1304,4237,1155,-447,624
398,-1126,4355,1204,-429,703
326,-611,4350,1175,-381,774
289,-148,4229,1270,-366,740
245,142,4505,1427,-377,634
177,195,4417,1423,-335,558
173,-74,4060,1320,-325,529
158,-463,4118,1236,-378,551
74,-423,4334,1328,-405,610
80,35,4199,1540,-373,638
171,119,3966,1650,-368,608
187,-93,4004,1607,-429,638
279,768,4351,1534,-493,750
279,768,4351,1534,-493,750
330,1298,4303,1401,-504,734
288,1062,4188,1217,-537,659
333,1060,4306,1079,-589,626
315,781,4469,1055,-609,558
306,667,4534,1106,-584,531
330,877,4377,1182,-557,533
373,1087,4371,1248,-573,496
405,1030,4488,1253,-590,451
445,942,4642,1259,-590,446
495,1058,4719,1258,-564,472
456,1351,4787,1211,-526,501
411,2030,4826,1137,-476,500
404,2508,4621,1015,-433,398
467,1962,4359,810,-440,253
524,1171,4441,610,-486,213
484,1062,4571,512,-499,272
444,1204,4439,514,-477,309
477,1025,4250,571,-478,292
512,550,4212,625,-498,295
517,349,4312,727,-513,367
491,1007,4393,824,-495,471
509,2558,4638,834,-468,481
648,3732,4831,707,-421,283
822,3136,4786,413,-366,-30
881,1632,4803,134,-326,-220
759,888,4731,-32,-268,-182
631,1162,4561,-86,-219,-72
583,1482,4335,-57,-210,-54
575,1338,4250,-44,-243,-101
608,1279,4427,-43,-290,-121
632,1612,4550,-45,-301,-130
757,1910,4429,-87,-311,-183
871,1728,4579,-240,-341,-257
940,1481,4816,-388,-329,-302
954,1305,4636,-471,-268,-331
958,1271,4605,-538,-242,-355
947,1287,4786,-549,-224,-393
952,1214,4610,-535,-173,-446
945,1055,4494,-535,-155,-495
1003,956,4605,-524,-158,-527
996,883,4570,-601,-136,-528
1030,1021,4573,-637,-125,-537
1058,966,4636,-675,-110,-574
1063,959,4605,-750,-78,-593
1061,946,4498,-818,-49,-624
1040,745,4562,-850,-35,-663
999,810,4538,-868,-4,-677
961,735,4306,-888,17,-714
946,381,4127,-924,6,-748
939,43,4254,-943,-25,-731
943,62,4465,-902,-27,-675
942,353,4302,-865,9,-637
915,383,4101,-869,19,-658
909,74,4073,-889,0,-681
930,-144,4141,-899,-18,-665
953,-58,4213,-898,-8,-629
946,-72,4077,-887,10,-624
917,-275,4083,-890,9,-627
888,-329,4161,-837,8,-618
846,-381,4099,-756,21,-610
808,-429,4041,-705,18,-595
803,-494,4028,-670,5,-575
775,-480,3992,-640,-2,-550
759,-443,3852,-633,-19,-534
817,-655,3925,-651,-65,-524
857,-741,4244,-630,-92,-487
828,-658,4189,-614,-64,-433
818,-572,3976,-606,-57,-409
818,-572,3976,-606,-57,-409
821,-827,4022,-593,-86,-417
862,-971,4262,-531,-101,-396
873,-707,4324,-435,-72,-359
906,-447,4206,-391,-45,-357
961,-728,4179,-440,-51,-370
932,-1027,4303,-474,-60,-331
883,-1049,4158,-463,-51,-267
837,-1064,4002,-434,-66,-234
837,-1148,4054,-394,-105,-219
879,-1187,4221,-330,-129,-205
955,-1048,4386,-232,-129,-189
1039,-1013,4352,-187,-111,-183
1102,-1265,4444,-178,-102,-168
1133,-1230,4596,-151,-77,-113
1096,-1096,4476,-112,-24,-73
1034,-1042,4403,-50,1,-66
1022,-910,4415,1,10,-56
1014,-939,4325,11,15,-42
1005,-1039,4396,20,0,-4
998,-896,4426,45,0,52
955,-660,4357,89,11,68
943,-554,4281,113,16,43
970,-558,4465,113,13,18
993,-550,4531,112,38,20
945,-566,4424,100,70,38
865,-438,4377,114,80,58
831,-265,4289,128,82,61
815,-274,4230,121,73,44


-187,1440,5024,490,1089,392
-306,1577,4679,462,1163,332
-306,1577,4679,462,1163,332
-360,1722,4472,418,1172,271
-462,1887,4187,335,1150,208
-560,1824,3849,159,1080,142
-571,1623,4025,-69,965,106
-528,1660,4400,-203,891,109
-502,1793,4574,-258,889,101
-529,1976,4598,-330,939,75
-565,2186,4453,-350,1009,9
-658,2354,4271,-369,1052,-68
-737,2575,4112,-462,1066,-142
-808,2511,3870,-596,1069,-239
-927,2116,3680,-728,1039,-327
-1066,1948,3539,-856,997,-352
-1144,2111,3302,-1000,964,-363
-1199,2007,3006,-1125,910,-428
-1255,1749,2742,-1197,801,-498
-1315,1724,2787,-1290,665,-521
-1331,2093,2755,-1368,548,-558
-1332,2108,2614,-1520,454,-672
-1268,1528,2563,-1619,353,-827
-1240,669,2705,-1679,269,-910
-1227,211,2845,-1691,223,-874
-1259,249,2840,-1626,207,-809
-1365,460,2632,-1548,194,-778
-1437,395,2333,-1498,139,-812
-1452,15,2253,-1485,35,-865
-1390,-169,2470,-1501,-77,-873
-1318,-272,2626,-1523,-147,-876
-1329,-407,2698,-1532,-188,-892
-1396,-337,2641,-1492,-230,-911
-1402,-293,2332,-1525,-292,-943
-1319,-746,2258,-1582,-419,-1017
-1350,-1584,2545,-1577,-549,-1056
-1404,-1787,2785,-1534,-617,-951
-1334,-1330,2782,-1417,-666,-842
-1243,-917,2972,-1334,-724,-843
-1093,-996,3132,-1218,-765,-935
-941,-1378,3154,-1172,-789,-984
-828,-1554,3111,-1163,-814,-964
-813,-1760,2961,-1158,-853,-941
-765,-2067,2781,-1203,-928,-900
-604,-2205,2876,-1247,-1040,-842
-521,-2365,3315,-1205,-1121,-818
-502,-2436,3694,-1116,-1105,-782
-463,-2313,3913,-960,-1030,-737
-483,-2263,3750,-775,-936,-704
-430,-2414,3509,-686,-891,-652
-407,-2618,3533,-686,-903,-561
-416,-2314,3857,-628,-928,-457
-313,-2169,4060,-504,-888,-445
-190,-2625,4067,-353,-807,-482
-171,-2808,4028,-215,-731,-441
-189,-2838,3597,-141,-687,-353
-157,-2902,3408,-128,-739,-257
-155,-2907,3537,-126,-810,-167
-158,-2936,3546,-104,-839,-105
-112,-3038,3593,-17,-857,-66
-20,-3077,3731,112,-863,-13
136,-3192,3844,234,-849,48
235,-3315,3966,390,-823,119
275,-3190,4086,541,-783,218
321,-2752,4296,679,-732,315
386,-2323,4407,825,-668,350
380,-2238,4391,878,-611,366
386,-2164,4691,890,-570,410
356,-1993,4515,875,-490,475
298,-1898,4108,848,-467,511
194,-1995,4207,825,-509,528
194,-1995,4207,825,-509,528
152,-2125,4169,802,-501,573
167,-2250,3928,844,-502,631
252,-2382,3945,934,-542,704
322,-2277,4041,1050,-554,788
356,-1976,4104,1227,-544,842
450,-1795,4228,1451,-518,862
543,-1408,4357,1657,-476,878
614,-912,4358,1743,-424,880
614,-920,4135,1684,-391,858
609,-1010,4232,1559,-401,889
541,-872,4410,1546,-393,939
442,-605,4146,1549,-351,986
465,-512,3940,1518,-362,1009
536,-679,4058,1513,-406,1030
564,-612,4174,1495,-414,1098
494,57,4250,1482,-393,1163
521,866,4244,1461,-358,1122
607,669,4153,1470,-332,951
650,462,4460,1491,-334,844
669,876,4699,1540,-275,793
611,998,4346,1523,-200,722
523,958,4164,1403,-215,691
417,971,3927,1265,-267,693
332,918,3826,1107,-364,709
290,936,3966,1014,-457,720
340,826,3846,915,-502,720
364,792,3748,872,-572,706
391,1067,4039,858,-651,667
428,1098,4110,836,-662,587
469,1114,4205,834,-666,501
513,1135,4339,864,-666,422
588,1372,4626,838,-653,376
621,1365,4698,783,-607,322
655,1198,4690,725,-576,293
638,1063,4650,649,-560,306
578,1197,4552,570,-558,340
550,1272,4330,467,-574,341
553,1180,4387,334,-630,325
634,1312,4931,249,-666,314
713,1467,5148,303,-616,267
740,1644,5206,339,-538,216
773,2013,5351,339,-459,156
812,2144,5207,302,-373,61
773,1948,5181,203,-329,-26
722,1901,5146,113,-302,-66
709,1996,5029,-6,-290,-83
726,2261,4905,-157,-301,-111
802,2307,5003,-326,-338,-187
890,2024,5339,-447,-340,-270
963,1902,5313,-503,-277,-313
1026,1884,5180,-561,-213,-351
1054,1723,5000,-683,-164,-392
1041,1461,4814,-835,-139,-418
1015,1387,4772,-936,-128,-437
976,1287,4601,-974,-104,-484
979,1108,4433,-1003,-92,-542
1006,932,4418,-1047,-91,-584
1016,664,4472,-1066,-80,-621
990,479,4438,-1040,-59,-633
1030,441,4446,-990,-38,-634
1099,435,4468,-935,-8,-644
1113,448,4493,-910,20,-653
1075,527,4427,-885,56,-670
983,490,4195,-876,80,-706
963,353,4095,-902,60,-735
985,165,4191,-956,29,-740
993,87,4428,-967,22,-736
993,101,4473,-926,61,-738
952,188,4260,-899,113,-754
952,188,4260,-899,113,-754
932,-10,4064,-893,130,-794
966,-350,4062,-889,110,-801
961,-579,4067,-891,93,-754
925,-332,4233,-852,78,-686
929,23,4199,-823,91,-678
940,-131,4127,-839,96,-730
950,-377,4194,-833,92,-763
964,-427,4131,-814,104,-759
982,-556,4078,-811,102,-753
949,-617,4129,-799,98,-740
904,-594,3968,-805,104,-720
922,-636,3908,-816,77,-715
932,-846,4005,-816,45,-719
976,-1035,3988,-787,41,-701
991,-1118,4035,-735,42,-680
976,-1044,4150,-649,55,-659
1008,-978,3940,-619,77,-639
1001,-1321,3791,-673,54,-624
980,-1619,4035,-669,12,-567
992,-1525,4070,-602,21,-494
980,-1481,3990,-531,35,-458
962,-1359,4209,-451,35,-441
961,-1141,4243,-388,63,-436
973,-1288,4082,-390,81,-439
915,-1720,3939,-429,62,-405
861,-1779,3951,-415,25,-319
853,-1503,4039,-341,8,-267
929,-1462,4147,-251,14,-276
979,-1656,4202,-178,30,-273
955,-1558,4216,-137,43,-220
896,-1356,4110,-106,56,-177
852,-1377,3919,-90,45,-170
884,-1475,4074,-70,8,-162
964,-1546,4212,-37,5,-134
979,-1508,4147,-23,18,-80
950,-1281,4241,-9,18,-34
919,-1047,4199,7,36,-23
905,-1023,4107,3,38,-35
898,-1137,4143,-4,22,-43
880,-1194,4087,-15,18,-20
871,-1194,3997,-37,4,7
861,-1215,4182,-37,-16,30
863,-1093,4235,13,0,49
856,-995,4082,47,19,53
834,-965,4152,57,9,50
842,-931,4219,68,11,55
831,-778,4318,74,17,70
800,-655,4278,65,30,74
775,-717,4201,45,31,66
745,-755,4234,62,21,63
726,-669,4163,77,19,60
744,-601,4230,98,0,41
773,-708,4198,122,-2,13
782,-788,4132,118,-15,9
813,-639,4193,107,-40,16
832,-608,4185,69,-53,5
877,-801,4195,2,-59,0
917,-847,4282,-31,-68,14


-86,96,4811,599,648,465
-9,127,5022,550,631,516
-16,451,5165,533,659,568
-97,829,4973,537,712,569
-162,980,4796,551,726,510
-189,709,4856,572,727,433
-277,614,4959,619,760,418
-338,1016,5007,695,825,426
-352,1470,4902,746,896,389
-349,1611,4770,727,938,303
-352,1250,4744,649,965,230
-403,1057,4702,573,1002,246
-526,1389,4450,518,1051,293
-622,1656,4079,429,1062,295
-682,1718,3906,314,999,263
-776,1894,3871,202,908,230
-884,1985,3828,63,835,172
-925,1807,3856,-34,769,98
-909,1811,3947,-16,715,25
-942,1856,3897,-47,701,-44
-946,1792,3824,-113,690,-108
-873,1663,3821,-183,668,-161
-828,1474,3904,-259,662,-185
-835,1685,4021,-305,669,-171
-911,2042,3773,-386,707,-184
-1026,2159,3242,-519,701,-247
-1096,1995,2859,-700,611,-338
-1097,1669,2906,-898,465,-410
-1038,1591,3359,-1004,347,-445
-977,1687,3591,-1016,329,-496
-1015,1482,3406,-1057,355,-560
-1067,1153,3181,-1099,345,-599
-1110,894,3096,-1110,306,-612
-1117,949,3029,-1138,263,-599
-1119,1025,2955,-1162,212,-632
-1089,733,2941,-1148,153,-701
-1066,521,3072,-1138,104,-729
-1067,611,3028,-1141,78,-731
-1045,784,2850,-1211,39,-757
-1012,651,2788,-1327,-32,-835
-987,211,2803,-1436,-114,-914
-1040,-151,2785,-1557,-179,-943
-1040,-151,2785,-1557,-179,-943
-1164,-120,2672,-1636,-246,-944
-1196,-58,2414,-1715,-335,-968
-1130,-392,2293,-1796,-463,-1036
-1086,-875,2670,-1768,-586,-1100
-1069,-1116,3034,-1644,-632,-1102
-919,-1039,3224,-1456,-613,-1090
-778,-1430,3199,-1233,-565,-1132
-755,-2062,3082,-1083,-540,-1104
-742,-1963,3188,-991,-558,-959
-799,-1404,3184,-947,-576,-836
-866,-1205,2775,-975,-606,-821
-816,-1648,2591,-1050,-711,-865
-776,-2254,3180,-999,-835,-901
-730,-2313,3654,-834,-844,-855
-646,-2100,3422,-705,-779,-793
-557,-1888,3414,-637,-787,-775
-450,-1721,3774,-548,-818,-796
-358,-2087,3939,-492,-799,-820
-286,-2392,3970,-494,-779,-749
-289,-2219,3818,-519,-778,-624
-287,-2166,3662,-563,-806,-557
-263,-2446,3852,-567,-851,-535
-304,-2537,4032,-496,-846,-481
-374,-2246,3691,-404,-808,-412
-375,-2067,3468,-367,-836,-397
-370,-2178,3699,-300,-894,-428
-318,-2241,3735,-182,-909,-446
-126,-2581,3592,-144,-916,-433
113,-2924,3890,-140,-972,-354
290,-2908,4392,-133,-981,-220
312,-2676,4434,-128,-910,-90
272,-2522,4293,-106,-842,-21
295,-2617,4269,-76,-799,12
310,-2701,4427,-18,-764,71
222,-2521,4320,40,-702,149
127,-2522,3956,64,-662,197
116,-2762,3750,116,-683,218
211,-2774,3940,207,-735,265
369,-2598,4277,325,-746,325
486,-2570,4415,443,-700,380
554,-2519,4447,539,-633,450
576,-2275,4453,575,-562,525
582,-2001,4528,605,-496,556
550,-1800,4665,647,-431,549
509,-1900,4653,727,-352,534
470,-1999,4470,807,-293,564
439,-1784,4286,861,-283,632
417,-1607,4051,873,-298,670
405,-1815,3952,871,-344,682
435,-1926,4047,903,-389,735
432,-1657,4072,987,-403,800
407,-1091,3961,1058,-407,824
438,-637,4026,1101,-429,770
523,-375,4414,1128,-447,677
600,-316,4706,1167,-406,582
594,-355,4564,1163,-326,535
554,-154,4351,1110,-295,533
574,-147,4283,1058,-312,518
574,-503,4229,962,-341,530
507,-506,4159,881,-367,607
387,-182,3916,885,-385,648
348,-60,3968,947,-422,603
418,-71,4071,1020,-430,552
484,161,4036,1071,-431,523
508,335,4121,1075,-435,476
523,146,4025,1065,-427,420
562,255,4299,1106,-441,395
600,583,4293,1127,-409,377
600,583,4293,1127,-409,377
639,527,4035,1066,-407,343
653,308,4156,943,-466,360
652,316,4338,889,-497,411
548,411,4279,878,-475,445
575,635,4008,876,-467,439
629,456,4138,901,-497,370
637,264,4179,960,-490,323
625,645,4152,1028,-462,300
610,789,4240,1079,-437,220
710,464,4093,1110,-417,157
793,519,4304,1067,-449,179
736,779,4413,984,-452,214
698,921,4366,905,-453,224
666,686,4296,857,-464,201
660,463,4373,883,-482,195
747,811,4613,934,-485,214
832,1179,4672,939,-449,174
929,1072,4609,867,-431,108
971,971,4815,759,-437,83
1016,1058,4912,643,-409,84
1058,919,4948,564,-374,62
1039,830,5032,521,-340,55
1026,1087,5099,483,-291,61
1045,1175,5133,439,-241,36
1072,1248,5253,375,-208,24
1064,1429,5319,305,-177,11
1076,1425,5325,214,-146,-12
1071,1524,5337,130,-116,-32
1095,1661,5287,37,-84,-70
1133,1647,5130,-89,-66,-123
1153,1574,5243,-232,-71,-175
1133,1579,5353,-335,-35,-224
1127,1586,4986,-439,22,-268
1112,1505,4827,-577,19,-313
1114,1368,4783,-701,6,-349
1074,1249,4639,-786,7,-382
1059,1234,4565,-853,7,-411
1126,1063,4551,-880,17,-457
1101,912,4644,-878,50,-491
1018,954,4383,-841,117,-513
950,944,3933,-837,140,-548
933,876,3958,-864,96,-586
894,876,3930,-891,77,-616
861,909,3816,-939,62,-652
865,793,3757,-1020,33,-696
865,642,3799,-1119,-1,-722
821,600,3731,-1208,-27,-739
826,382,3699,-1256,-60,-778
820,103,3999,-1250,-89,-808
803,164,4069,-1184,-60,-807
827,99,3933,-1107,-31,-827
874,22,4071,-1063,-41,-829
933,77,4186,-1036,-32,-815
970,-70,4044,-1037,-11,-813
966,-253,3910,-1026,-15,-817
1044,-401,3984,-986,-30,-829
1113,-517,4148,-944,-25,-836
1166,-509,4172,-894,0,-828
1194,-665,3969,-902,23,-824
1167,-940,4127,-898,10,-811
1181,-953,4206,-822,31,-775
1201,-892,4064,-736,59,-756
1169,-920,3943,-722,64,-757
1122,-1092,3847,-745,49,-756
1132,-1391,3799,-749,20,-738
1188,-1518,3830,-745,-8,-685
1206,-1512,3935,-745,-28,-637
1158,-1398,4114,-683,-24,-620
1158,-1398,4114,-683,-24,-620
1185,-1425,3984,-622,10,-620
1200,-1803,3820,-618,8,-610
1186,-1923,4007,-617,-14,-533
1080,-1770,3810,-601,-8,-452
1014,-1722,3601,-571,-38,-424
1074,-1962,3676,-517,-97,-420
1133,-2119,3947,-462,-136,-384
1176,-2064,4158,-371,-124,-327
1187,-1991,4149,-251,-92,-290
1247,-1791,4371,-155,-69,-242
1303,-1556,4367,-132,-25,-205
1271,-1699,4439,-130,0,-179
1209,-1709,4467,-94,24,-118
1170,-1390,4323,-44,55,-62
1173,-1327,4112,-21,55,-56
1089,-1480,4241,-51,23,-42
1076,-1336,4206,-53,29,0
1064,-1296,3921,-46,22,0
1071,-1375,3990,-41,-23,-13


-89,1472,5034,135,767,336
-215,1279,4784,53,836,278
-324,1005,4770,-57,877,261
-393,1015,4828,-87,929,276
-521,1147,4527,-51,987,286
-736,1484,4019,-109,982,301
-947,1743,3781,-195,892,259
-976,1529,3848,-225,772,158
-818,1059,4060,-249,683,92
-685,886,4452,-258,642,106
-693,1153,4616,-258,690,143
-766,1385,4335,-261,765,134
-766,1385,4335,-261,765,134
-825,1308,4091,-289,796,79
-866,1137,4005,-352,795,36
-884,1152,4003,-413,783,29
-905,1130,3823,-418,775,2
-997,969,3597,-451,735,-23
-1038,1103,3657,-489,659,-17
-996,1265,3888,-470,592,-47
-955,1231,4157,-397,579,-111
-949,1262,3916,-392,606,-153
-950,1420,3863,-391,582,-207
-964,1375,3944,-348,550,-283
-887,1138,3978,-297,543,-337
-874,809,3961,-338,556,-330
-967,1023,3866,-433,566,-269
-1076,1436,3692,-481,566,-272
-1212,1463,3267,-561,548,-353
-1338,1274,3195,-629,472,-450
-1344,1089,3129,-632,396,-527
-1303,841,2991,-681,307,-581
-1172,694,3358,-774,200,-596
-1033,590,3721,-807,179,-597
-1019,901,3612,-863,220,-599
-1081,1217,3435,-948,223,-661
-1082,953,3441,-1053,199,-781
-1071,229,3499,-1087,188,-877
-1103,-138,3492,-1080,185,-869
-1166,-98,3514,-1055,189,-828
-1206,-37,3321,-975,196,-827
-1228,-155,3071,-1004,169,-833
-1216,-136,3170,-1114,99,-829
-1258,-22,3240,-1202,61,-857
-1334,-84,2857,-1268,37,-926
-1353,-313,2578,-1391,-57,-991
-1333,-473,2821,-1505,-189,-1038
-1289,-865,2949,-1541,-247,-1081
-1240,-1392,2961,-1542,-284,-1062
-1307,-1635,2973,-1443,-317,-988
-1387,-1316,2756,-1365,-332,-878
-1345,-984,2413,-1292,-390,-863
-1271,-1184,2340,-1233,-512,-949
-1185,-1627,2519,-1206,-634,-1019
-1049,-1790,2793,-1178,-723,-1026
-857,-1735,3114,-1138,-765,-1021
-819,-1732,3313,-1111,-763,-1024
-751,-1640,3320,-1088,-757,-1023
-669,-2122,3284,-1105,-746,-1048
-730,-2660,3309,-1061,-755,-1010
-760,-2566,3508,-923,-773,-898
-766,-2311,3510,-815,-748,-815
-773,-2353,3263,-758,-730,-799
-784,-2704,3279,-714,-764,-806
-748,-3062,3388,-625,-774,-781
-630,-3334,3291,-506,-755,-712
-485,-3341,3395,-400,-769,-613
-393,-3107,3627,-319,-779,-518
-446,-2886,3557,-268,-760,-460
-493,-2734,3334,-252,-764,-425
-440,-2910,3244,-221,-823,-417
-434,-2880,3246,-166,-911,-386
-405,-2845,3359,-146,-975,-360
-348,-3060,3443,-14,-1004,-378
-286,-3169,3239,153,-1011,-361
-164,-3081,3035,212,-1053,-305
13,-2901,3107,161,-1130,-242
171,-2717,3237,122,-1199,-192
325,-2682,3354,54,-1246,-145
415,-2836,3442,-7,-1258,-94
395,-2754,3455,-4,-1247,-33
395,-2754,3455,-4,-1247,-33
405,-2847,3469,60,-1225,-12
440,-3139,3744,257,-1196,-10
480,-3208,3820,429,-1103,52
495,-2854,3811,585,-1012,139
577,-2385,3972,698,-950,183
663,-2439,4214,808,-877,174
781,-2541,4333,932,-792,213
890,-2534,4483,1044,-710,281
902,-2638,4516,1127,-613,368
893,-2395,4572,1185,-512,488
955,-1803,4694,1232,-419,571
928,-1773,4953,1296,-310,571
878,-1805,4861,1420,-185,598
870,-1804,4407,1464,-111,668
859,-1844,4308,1483,-135,752
771,-1502,4454,1551,-174,843
741,-637,4482,1565,-166,891
762,-473,4294,1501,-160,822
698,-954,4193,1446,-191,747
582,-740,4281,1407,-231,769
628,-91,4474,1406,-252,767
693,-193,4404,1347,-259,711
703,-371,4501,1283,-295,707
695,-374,4516,1281,-305,731
664,-436,4137,1255,-306,762
623,-274,4242,1250,-358,799
596,34,4426,1293,-356,795
596,410,4387,1303,-321,757
665,480,4281,1281,-306,686
668,234,4319,1246,-312,625
610,354,4474,1265,-315,612
567,692,4381,1271,-281,590
563,561,4014,1230,-267,525
495,341,4118,1205,-312,487
453,538,4108,1198,-324,495
448,676,3934,1186,-341,480
520,867,4050,1156,-390,443
600,921,4338,1129,-422,388
633,1145,4597,1106,-402,346
563,1384,4742,1103,-351,283
496,1318,4476,1089,-286,213
399,844,4155,1022,-289,178
394,1014,4527,1008,-330,224
426,1283,3927,985,-325,229
439,1191,4082,865,-440,199
509,1324,4612,798,-494,187
603,1386,4516,777,-460,150
622,1371,4635,740,-454,96
611,1693,5007,737,-412,47
635,1884,4820,754,-317,-48
622,1609,4679,698,-281,-155
626,1573,4906,637,-274,-191
625,1963,4949,573,-241,-201
608,2211,4726,446,-216,-251
609,1828,4676,267,-240,-321
645,1438,4888,124,-268,-320
604,1688,4919,32,-253,-273
564,2221,4846,-13,-233,-297
622,2187,4624,-108,-223,-417
708,1730,4642,-210,-245,-537
756,1464,4621,-306,-248,-591
761,1368,4391,-373,-256,-621
852,1276,4409,-483,-291,-648
939,976,4607,-595,-306,-672
971,878,4772,-634,-278,-674
982,991,4654,-645,-219,-688
969,990,4418,-690,-186,-734
954,786,4436,-712,-191,-795
1019,609,4406,-712,-181,-838
1019,609,4406,-712,-181,-838
1079,465,4416,-710,-168,-863
1045,384,4457,-705,-145,-873
1044,364,4283,-734,-116,-872
1044,150,4278,-783,-116,-884
1050,-92,4355,-807,-115,-868
1068,45,4393,-810,-97,-824
1067,250,4371,-818,-79,-808
1085,387,4385,-833,-64,-829
1087,96,4142,-893,-44,-870
1078,-361,4082,-972,-63,-867
1032,-551,4147,-979,-84,-817
1060,-483,4222,-931,-83,-770
1137,-454,4234,-877,-60,-762
1183,-573,4365,-815,-38,-771
1183,-757,4480,-732,6,-760
1163,-767,4191,-685,64,-704
1125,-671,4008,-720,50,-649
1077,-818,4166,-772,11,-617
1089,-871,4312,-763,0,-577
1075,-774,4380,-729,19,-547
1022,-880,4245,-679,45,-540
1050,-1050,3921,-633,39,-540
1083,-1493,4033,-621,-14,-516
1146,-1659,4254,-599,-18,-423
1101,-1417,4043,-525,-5,-337
1135,-1367,4039,-448,-25,-306
1179,-1702,4059,-397,-39,-275
1247,-1695,4309,-324,-46,-198
1222,-1337,4321,-254,-4,-126
1153,-1109,4055,-234,22,-106
1082,-1161,4161,-223,0,-123
1064,-1204,4363,-150,0,-126
1073,-1341,4177,-88,23,-90
1007,-1287,4212,-53,11,-20
934,-912,4213,-10,18,31
873,-616,4188,35,16,28
897,-487,4320,53,13,0
928,-603,4410,49,20,-13
927,-615,4484,43,38,15
858,-510,4237,28,64,55
799,-457,4066,-4,41,71
816,-463,4168,-20,0,71
843,-393,4327,-14,-12,71
841,-285,4323,-9,0,62
847,-310,4329,-13,0,51
820,-302,4349,-21,8,47
819,-281,4294,-14,12,46
861,-325,4343,-6,7,42


-976,1288,3745,-244,932,167
-993,803,3806,-336,830,169
-844,982,4049,-384,754,233
-671,1089,4245,-382,724,240
-607,1187,4434,-405,734,227
-617,1392,4421,-453,783,203
-641,1306,4300,-501,837,137
-711,990,4124,-532,866,89
-778,1154,4093,-511,849,93
-832,1507,4022,-367,830,31
-830,1214,3948,-252,818,-99
-857,1003,3947,-159,807,-173
-979,958,3714,-142,806,-185
-1057,900,3318,-231,769,-182
-1074,798,3448,-362,675,-184
-1109,776,3441,-437,619,-190
-1158,888,3218,-633,552,-184
-1181,956,3711,-728,453,-209
-1108,1065,4155,-666,453,-257
-1072,1034,4019,-571,524,-318
-1208,1168,3727,-569,559,-353
-1412,1170,3485,-577,529,-411
-1536,731,3388,-561,477,-483
-1582,349,3240,-492,415,-505
-1528,463,3253,-413,321,-477
-1423,800,3442,-426,239,-467
-1308,752,3484,-522,210,-498
-1263,535,3379,-694,182,-532
-1278,356,3601,-775,135,-560
-1236,444,3690,-784,137,-577
-1205,500,3558,-835,147,-613
-1250,301,3500,-918,132,-654
-1273,200,3339,-996,105,-680
-1337,10,3123,-1119,51,-700
-1377,-13,3302,-1149,-32,-726
-1401,-257,3228,-1062,-72,-790
-1378,-581,2941,-1056,-111,-805
-1345,-686,2849,-1069,-189,-788
-1375,-511,2936,-1087,-269,-773
-1401,-274,2779,-1127,-327,-793
-1390,-348,2694,-1194,-413,-864
-1333,-728,2689,-1300,-509,-911
-1281,-986,2807,-1412,-604,-887
-1239,-1007,2876,-1461,-665,-842
-1195,-1203,2787,-1411,-701,-840
-1110,-1729,2609,-1314,-747,-847
-1043,-2118,2778,-1188,-825,-810
-903,-1971,3284,-1038,-872,-742
-747,-1459,3516,-905,-843,-700
-682,-1293,3376,-786,-803,-751
-606,-1645,3258,-752,-812,-815
-521,-1980,3395,-755,-846,-820
-521,-1980,3395,-755,-846,-820
-485,-1919,3783,-778,-863,-771
-490,-1975,3901,-765,-822,-748
-625,-2183,3792,-702,-772,-722
-796,-2284,3643,-606,-755,-665
-875,-2166,3472,-501,-780,-602
-791,-2204,3387,-471,-834,-562
-643,-2440,3670,-420,-902,-546
-558,-2542,3960,-360,-901,-503
-470,-2707,3585,-262,-855,-450
-357,-2470,3522,-204,-890,-388
-185,-2359,3847,-188,-931,-376
-29,-2615,4032,-183,-918,-380
102,-2951,4113,-191,-896,-332
127,-2840,4474,-181,-869,-232
42,-2401,4480,-124,-778,-152
-56,-2302,4013,-77,-700,-142
-110,-2476,3817,-47,-720,-148
-133,-2462,3931,-20,-773,-109
-63,-2371,4080,28,-802,-71
67,-2565,4089,53,-819,-46
220,-2726,4359,59,-838,9
258,-2721,4527,106,-802,85
267,-2553,4305,164,-721,149
245,-2538,3870,232,-684,161
336,-2740,3851,280,-713,172
473,-2982,4033,334,-727,221
555,-2969,4271,433,-706,302
585,-2559,4446,572,-651,373
586,-2029,4355,649,-583,397
591,-1976,4296,645,-554,381
576,-2156,4271,606,-545,396
571,-2153,4361,594,-539,452
561,-1949,4548,630,-506,500
595,-1707,4576,679,-454,527
667,-1881,4586,760,-396,515
659,-2132,4461,866,-346,548
643,-1691,4322,935,-326,639
653,-1139,4277,934,-331,678
672,-955,4405,901,-350,643
684,-917,4614,903,-343,598
664,-921,4412,896,-296,575
589,-1068,4222,890,-294,574
542,-889,4279,896,-312,606
524,-492,4272,882,-311,621
548,-174,4325,853,-304,584
543,-225,4286,833,-294,518
498,-531,4244,829,-296,486
473,-343,4325,832,-296,520
396,165,4188,840,-273,523
373,88,3955,836,-273,453
371,-242,3933,842,-316,408
407,-87,3933,818,-344,426
421,67,3930,815,-370,405
461,59,3975,801,-396,376
473,0,4145,785,-412,361
462,341,4349,807,-399,357
426,566,4048,790,-366,322
440,371,3905,720,-401,272
493,90,4029,670,-453,265
576,101,3991,665,-474,282
568,-25,3883,681,-483,258
555,-42,3949,770,-487,220
565,166,3839,839,-474,194
615,387,3873,839,-495,159
674,400,4191,832,-517,122
736,327,4313,826,-491,111
702,379,4359,836,-459,120
676,453,4389,858,-434,116
676,453,4389,858,-434,116
632,814,4642,918,-404,94
603,1418,4354,943,-371,27
623,1143,4334,824,-412,-75
717,782,4640,702,-480,-94
740,689,4891,630,-478,-65
743,938,4902,648,-424,-52
758,1157,4754,660,-381,-85
780,1303,4743,610,-375,-126
824,1097,4588,473,-378,-155
832,849,4663,340,-411,-148
867,955,4824,301,-410,-134
912,998,4780,308,-370,-164
953,996,4729,298,-344,-202
1002,1091,4893,284,-330,-225
1030,1231,4765,233,-294,-241
1078,1349,4675,136,-301,-269
1121,1460,4970,20,-310,-311
1131,1557,5000,-20,-259,-379
1157,1510,4824,-71,-207,-465
1160,1219,4913,-137,-188,-540
1150,869,4895,-189,-159,-558
1131,784,4729,-257,-138,-516
1164,860,4614,-342,-146,-488
1259,691,4701,-427,-159,-503
1355,431,4933,-483,-142,-510
1373,527,4935,-513,-77,-486
1338,665,4752,-526,-17,-503
1316,614,4721,-555,18,-558
1284,393,4662,-574,61,-618
1267,128,4523,-620,89,-641
1275,-105,4620,-657,88,-626
1257,-55,4690,-661,111,-595
1181,117,4547,-621,147,-592
1144,43,4238,-623,155,-622
1119,-212,4141,-683,120,-633
1082,-318,4190,-717,79,-608
1119,-273,4179,-714,62,-580
1184,-417,4147,-705,63,-586
1197,-531,4236,-698,67,-586
1174,-466,4325,-679,95,-579
1145,-540,4214,-655,138,-589
1056,-560,4121,-648,155,-588
950,-450,4117,-622,155,-585
917,-483,4179,-550,151,-597
885,-341,4089,-521,162,-585
837,-105,3976,-537,153,-591
804,-320,3893,-580,121,-626
813,-545,4086,-574,80,-628
808,-436,4087,-566,81,-593
776,-464,3845,-590,77,-579
782,-753,3698,-648,26,-565
866,-960,3782,-687,-34,-521
964,-1147,3946,-680,-64,-488
975,-1173,3986,-612,-60,-461
1013,-1207,3806,-540,-48,-454
1106,-1558,3761,-506,-74,-449
1179,-1659,4017,-479,-103,-398
1176,-1519,4110,-425,-87,-349
1179,-1567,3973,-362,-68,-333
1199,-1786,4069,-327,-78,-310
1206,-1788,4267,-254,-75,-258
1177,-1719,4092,-197,-48,-202
1145,-1634,4158,-160,-59,-158
1137,-1516,4291,-121,-60,-121
1117,-1476,4360,-67,-48,-96
1124,-1505,4333,-1,-27,-75
1165,-1366,4419,43,-15,-39
1194,-1182,4533,85,3,-16
1163,-1060,4459,97,34,0
1163,-1060,4459,97,34,0
1126,-958,4413,96,44,15
1087,-883,4363,73,45,29
1049,-827,4374,43,38,42
1016,-796,4450,30,38,54
983,-717,4401,29,57,66
932,-702,4296,34,69,65
890,-678,4310,28,60,77
862,-481,4301,15,54,99


893,-280,5487,639,193,210
932,-370,5659,712,311,252
979,-378,5718,760,448,321
982,-75,5930,804,588,399
884,426,5940,817,753,452
734,610,5636,754,896,473
516,495,5248,665,961,504
237,684,4970,532,959,585
37,1412,4940,457,915,617
19,1526,4928,392,877,539
45,1270,5125,304,846,477
-28,1281,5315,233,871,475
-105,1410,5338,214,950,484
-105,1410,5338,214,950,484
-187,1444,5111,179,1048,489
-277,1543,4927,133,1114,496
-396,1855,4961,99,1171,488
-582,2241,4824,138,1249,418
-773,2362,4362,118,1323,308
-911,2279,3875,40,1314,205
-1082,2151,3549,-84,1235,135
-1264,2258,3363,-197,1112,105
-1326,2576,3366,-238,976,64
-1287,2496,3400,-274,872,-45
-1232,2083,3406,-328,795,-138
-1160,1986,3504,-383,744,-157
-1177,2168,3378,-457,729,-165
-1249,2288,3065,-551,701,-208
-1297,2366,2850,-667,630,-278
-1258,2237,2864,-803,533,-371
-1213,1817,3010,-887,448,-459
-1179,1534,3150,-906,400,-497
-1207,1369,3039,-918,387,-508
-1309,1270,2824,-931,355,-504
-1336,1468,2610,-946,285,-508
-1237,1308,2638,-1010,183,-570
-1079,809,3012,-978,93,-638
-982,746,3160,-923,78,-647
-990,946,2977,-902,89,-671
-1000,857,2873,-911,65,-742
-1033,535,2872,-913,18,-812
-1120,277,2780,-937,-22,-835
-1215,212,2652,-951,-87,-839
-1259,41,2499,-984,-171,-858
-1274,-281,2505,-1052,-283,-876
-1224,-270,2714,-1080,-396,-876
-1143,-351,2700,-1127,-471,-903
-1063,-678,2719,-1191,-556,-931
-951,-952,3060,-1236,-640,-922
-889,-1076,3432,-1179,-675,-894
-875,-991,3423,-1126,-662,-840
-827,-708,3340,-1156,-661,-788
-760,-560,3476,-1117,-680,-828
-656,-797,3477,-1082,-678,-904
-482,-1401,3409,-1059,-685,-956
-365,-1930,3516,-1007,-720,-933
-307,-1946,3700,-913,-740,-852
-296,-1622,3799,-824,-725,-793
-306,-1304,3868,-793,-693,-785
-332,-1411,3886,-752,-652,-830
-409,-1905,3658,-677,-627,-850
-471,-2196,3539,-640,-660,-777
-538,-2103,3582,-650,-716,-650
-525,-1610,3725,-651,-765,-567
-452,-1574,3709,-581,-786,-612
-381,-2028,3709,-487,-808,-676
-301,-2514,3681,-408,-810,-666
-206,-2557,3711,-342,-812,-571
-53,-2156,3780,-321,-814,-465
61,-2063,3907,-369,-827,-429
94,-2269,4158,-435,-838,-396
42,-2397,4267,-475,-838,-313
-85,-2285,4392,-386,-831,-246
-121,-2308,4081,-278,-783,-221
-146,-2559,3725,-196,-789,-210
-42,-2755,3593,-138,-857,-165
141,-3079,3640,-129,-950,-89
370,-3203,4038,-128,-1026,39
544,-3005,4451,-82,-1019,165
600,-2624,4667,14,-945,246
613,-2396,4715,150,-846,269
646,-2332,4709,267,-753,283
616,-2344,4569,356,-674,307
618,-2356,4454,424,-639,343
618,-2356,4454,424,-639,343
649,-2304,4558,483,-622,394
689,-2202,4508,514,-586,454
760,-1987,4447,525,-569,512
799,-1720,4592,503,-559,548
856,-1776,4610,503,-528,557
930,-2011,4616,510,-499,596
961,-1841,4846,532,-458,671
899,-1569,4789,603,-366,714
786,-1303,4415,704,-280,706
676,-1293,4118,736,-266,680
679,-1344,4250,764,-306,678
686,-1261,4390,815,-313,711
686,-919,4507,887,-300,748
640,-645,4419,919,-273,758
559,-529,4278,909,-271,762
570,-667,4172,899,-295,761
650,-782,4306,873,-326,791
711,-844,4447,885,-322,834
715,-774,4433,909,-291,895
659,-163,4587,979,-259,938
579,768,4778,1051,-194,874
580,913,4781,1142,-106,676
616,331,4765,1178,-37,511
597,115,4713,1158,9,503
508,93,4238,1036,31,568
426,-59,4022,881,-24,622
392,-75,4144,857,-95,651
430,-60,4249,938,-122,642
520,165,4494,1035,-119,628
559,428,4486,1083,-79,606
596,315,4515,1126,-54,567
565,352,4692,1155,-28,571
454,1052,4746,1173,19,586
335,1480,4352,1146,72,501
254,931,3970,1050,38,392
254,669,4182,964,-45,394
190,1119,4226,944,-88,425
126,1809,4160,907,-123,388
115,1841,3994,795,-174,271
177,1596,4205,664,-259,173
251,1460,4539,599,-297,104
322,1315,4646,599,-271,58
363,1747,4623,563,-233,47
361,1769,4529,482,-206,-32
397,1344,4662,417,-199,-105
365,1058,4556,384,-169,-98
275,1277,4280,315,-168,-35
213,1846,4243,189,-223,-23
230,1779,4265,56,-279,-105
301,1339,4452,-37,-321,-192
376,1351,4792,-42,-310,-248
439,1406,4901,29,-232,-339
513,1187,4888,118,-139,-433
558,1022,4689,156,-69,-482
594,1036,4696,125,-60,-489
626,899,4836,46,-42,-481
621,889,4725,-10,-3,-455
558,1116,4651,-63,9,-450
538,1121,4589,-120,12,-493
516,860,4638,-156,2,-546
447,840,4510,-174,1,-569
415,984,4337,-198,-17,-605
524,862,4385,-230,-63,-676
657,476,4660,-266,-84,-730
695,349,4706,-283,-50,-714
715,490,4496,-324,-20,-682
764,396,4555,-406,-37,-676
750,273,4689,-454,-33,-670
750,273,4689,-454,-33,-670
714,402,4549,-456,-1,-662
664,406,4270,-460,3,-695
707,111,4344,-477,-33,-730
793,5,4553,-499,-46,-708
745,-65,4442,-514,-20,-682
670,-196,4262,-493,-13,-665
707,-226,4334,-468,-33,-642
793,-66,4552,-447,-27,-623
766,-9,4634,-434,16,-630
662,22,4439,-419,69,-635
581,-85,4189,-434,81,-636
542,-174,4222,-446,54,-624
513,-152,4216,-475,35,-594
511,28,4333,-493,23,-580
483,-109,4176,-495,30,-609
469,-323,4117,-500,7,-613
492,-259,4239,-509,-18,-583
566,-322,4250,-523,-27,-564
624,-542,4250,-550,-34,-534
612,-614,4260,-557,-34,-487
623,-466,4279,-522,-29,-456
664,-426,4405,-465,-17,-462
661,-632,4257,-437,8,-469
610,-703,4287,-408,5,-445
604,-465,4296,-381,15,-417
612,-549,4096,-397,22,-425
589,-1019,4133,-420,-3,-420
593,-1088,4216,-391,-20,-345
589,-879,4068,-361,-18,-280
582,-926,4070,-354,-39,-263
593,-964,4287,-321,-57,-246
594,-843,4245,-265,-36,-229
625,-868,4128,-231,-33,-231
685,-1097,4209,-226,-51,-218
683,-1104,4321,-204,-49,-170
671,-734,4343,-154,-30,-132
696,-780,4286,-134,-16,-147
643,-1121,4315,-125,-8,-139
564,-1002,4226,-92,-1,-75
523,-740,4023,-69,-13,-38
555,-789,4175,-65,-55,-41
607,-856,4331,-47,-61,-32
630,-788,4307,-18,-44,-15
636,-785,4366,20,-35,-11
658,-728,4461,58,-18,3
650,-557,4547,95,5,20


158,1833,4668,471,1483,251
-73,1796,4305,394,1585,331
-360,1859,3755,275,1632,432
-622,2093,3196,70,1600,546
-808,1967,2938,-204,1491,634
-863,1505,2990,-410,1333,757
-753,1355,3207,-480,1177,959
-574,1828,3728,-563,1092,1165
-523,2430,4002,-542,1121,1231
-652,3260,3938,-411,1211,1170
-749,4496,3765,-219,1296,937
-824,4827,3428,-140,1359,521
-752,4254,3264,-232,1361,137
-648,3311,3351,-411,1317,-91
-792,2550,3265,-585,1275,-133
-1029,2521,2919,-721,1234,-62
-1203,2750,2594,-749,1158,-42
-1271,3134,2514,-746,1057,-103
-1291,3392,2476,-810,965,-240
-1220,3467,2423,-910,858,-415
-1110,3234,2696,-1076,740,-587
-1006,2876,3093,-1158,655,-712
-952,2486,3328,-1226,648,-774
-1111,2169,3257,-1263,695,-787
-1290,2334,2893,-1228,736,-784
-1444,2721,2570,-1221,717,-834
-1501,2997,2394,-1196,640,-981
-1475,2837,2195,-1269,555,-1179
-1468,2167,2154,-1412,439,-1348
-1498,1593,2280,-1415,333,-1459
-1537,895,2103,-1373,272,-1531
-1578,391,2123,-1356,168,-1512
-1589,549,2467,-1328,62,-1431
-1604,869,2464,-1348,15,-1386
-1637,877,2259,-1396,-43,-1411
-1678,736,2195,-1479,-151,-1454
-1719,562,2177,-1524,-270,-1504
-1728,244,2119,-1491,-384,-1576
-1685,-364,2124,-1482,-501,-1624
-1627,-897,2433,-1482,-622,-1595
-1620,-1042,2715,-1414,-703,-1505
-1516,-788,2756,-1361,-745,-1396
-1317,-880,2562,-1380,-800,-1361
-1201,-1185,2610,-1454,-914,-1330
-1067,-1288,2929,-1471,-1023,-1279
-875,-1238,3492,-1402,-1060,-1260
-810,-1617,3792,-1216,-973,-1326
-938,-2051,3808,-1095,-840,-1302
-1178,-1739,3598,-987,-737,-1171
-1342,-1177,2921,-935,-700,-1087
-1408,-1114,2357,-1026,-805,-1098
-1339,-1329,2434,-1163,-1014,-1131
-1155,-1794,2666,-1269,-1188,-1156
-1155,-1794,2666,-1269,-1188,-1156
-964,-2430,2955,-1285,-1295,-1151
-798,-2892,3422,-1221,-1340,-1071
-606,-2878,3866,-1089,-1294,-938
-511,-2930,3825,-1047,-1180,-793
-495,-2737,3769,-1015,-1131,-632
-474,-2412,4023,-965,-1119,-532
-564,-2537,4224,-838,-1049,-534
-677,-2723,4104,-617,-929,-532
-726,-2820,3604,-458,-848,-484
-695,-2859,3429,-430,-880,-399
-657,-2864,3626,-431,-957,-300
-618,-2798,3875,-368,-987,-226
-518,-2830,3659,-279,-955,-185
-292,-2959,3586,-161,-974,-168
-44,-3159,4122,-53,-988,-140
137,-3454,4256,89,-915,-68
298,-3589,4179,240,-838,49
335,-3363,4373,377,-788,182
331,-2689,4374,495,-722,273
359,-2596,4350,565,-662,276
400,-2714,4521,629,-624,299
405,-2304,4660,694,-584,369
347,-2069,4417,684,-533,407
303,-2126,4392,615,-545,435
281,-2087,4599,583,-550,474
220,-2110,4472,554,-514,522
171,-2091,4386,577,-504,573
161,-2195,4263,639,-490,615
166,-2154,4236,714,-476,676
217,-1788,4223,837,-435,712
234,-1486,3994,917,-384,693
238,-1102,4232,938,-390,651
250,-987,4513,945,-359,602
186,-1039,4335,925,-308,591
86,-1045,4157,885,-304,614
17,-988,4146,871,-328,643
-8,-898,4162,926,-344,652
63,-912,4200,992,-343,660
176,-894,4338,1067,-337,678
210,-565,4496,1133,-313,715
237,-51,4427,1159,-273,721
283,-153,4372,1157,-264,665
390,-272,4587,1161,-272,655
453,-176,4677,1160,-247,686
459,157,4708,1131,-218,717
422,387,4696,1067,-188,711
339,328,4582,1011,-166,686
258,312,4462,943,-174,696
151,468,4448,892,-201,704
54,555,4229,808,-219,695
31,534,4351,757,-264,652
61,309,4629,800,-272,602
68,302,4704,879,-235,607
31,719,4663,943,-195,621
27,938,4431,982,-166,569
97,705,4291,950,-192,508
174,532,4455,891,-239,507
259,909,4603,831,-254,550
254,1210,4538,757,-246,517
179,1125,4501,652,-239,437
80,710,4443,600,-234,378
0,476,4136,586,-237,388
8,951,4224,551,-284,430
49,1198,4324,493,-303,391
66,712,4175,454,-309,312
133,360,4176,466,-330,299
216,135,4251,562,-341,313
224,514,4492,633,-339,368
191,1375,4625,676,-305,374
191,1375,4625,676,-305,374
196,1733,4519,634,-269,278
187,1416,4452,497,-271,182
190,1150,4571,332,-291,168
147,1110,4583,206,-289,198
65,1171,4407,124,-296,218
53,1224,4347,61,-338,213
81,1319,4514,-20,-383,197
140,1426,4743,-60,-394,153
169,1543,4835,-69,-367,91
248,1748,4922,-111,-337,23
363,1697,5077,-168,-302,-72
392,1289,5067,-205,-238,-163
370,1208,5044,-218,-178,-193
301,1487,4934,-230,-131,-212
217,1628,4671,-261,-112,-274
200,1363,4378,-337,-136,-349
219,1170,4547,-438,-210,-378
254,1225,4666,-506,-232,-391
400,1206,4636,-554,-236,-428
526,964,4693,-617,-242,-480
608,784,4751,-668,-225,-508
660,691,4708,-678,-192,-532
725,530,4650,-689,-162,-558
812,295,4603,-713,-143,-570
860,142,4646,-752,-127,-557
800,222,4643,-760,-95,-542
775,262,4527,-723,-59,-577
740,-79,4520,-641,-29,-649
661,-215,4401,-560,1,-663
590,-50,4160,-527,3,-645
566,-208,4081,-545,-31,-654
589,-418,4272,-559,-76,-636
633,-280,4387,-567,-77,-587
641,-158,4483,-575,-60,-569
601,-276,4496,-536,-31,-583
562,-156,4380,-484,1,-584
570,-104,4229,-446,12,-612
648,-264,4372,-463,-7,-629
680,-239,4661,-498,-6,-603
611,-94,4552,-479,36,-581
527,-114,4187,-452,57,-605
500,-418,4049,-452,22,-633
587,-554,4265,-453,-21,-612
654,-408,4475,-463,-19,-571
630,-356,4451,-469,19,-559
532,-255,4403,-450,54,-562
470,-254,4152,-443,73,-582
480,-517,4039,-489,38,-588
516,-638,4217,-536,-9,-555
584,-621,4242,-536,-19,-528
673,-735,4275,-526,-20,-530
694,-849,4340,-490,-6,-534
687,-962,4130,-448,14,-527
729,-1273,4003,-438,1,-511
775,-1451,4260,-427,-22,-457
795,-1265,4369,-375,0,-396
729,-1227,4230,-330,42,-380
676,-1375,4100,-285,56,-379
610,-1436,4091,-259,43,-347
566,-1204,4171,-222,27,-309
579,-1214,4088,-203,19,-298
606,-1448,4125,-204,-4,-275
610,-1478,4212,-187,-21,-221
618,-1371,4141,-147,-14,-178
642,-1380,4139,-110,-21,-164
682,-1470,4274,-71,-24,-147
683,-1477,4257,-32,-1,-112
683,-1287,4255,1,3,-68
671,-1010,4411,28,10,-48
648,-948,4378,44,38,-58
648,-948,4378,44,38,-58
578,-1076,4214,41,42,-55
547,-999,4298,54,20,-24
550,-926,4303,74,20,-10
537,-942,4294,89,13,-1
537,-866,4273,75,7,25


441,1360,5140,787,1092,638
298,1565,4981,790,1188,661
69,1547,4523,718,1272,697
-111,1738,4129,670,1271,763
-165,2161,4058,709,1209,766
-170,2269,4158,717,1171,692
-140,2183,4257,689,1172,632
-116,2294,4315,668,1198,611
-130,2440,4218,622,1240,617
-160,2614,4164,555,1262,639
-264,3115,4124,460,1284,659
-501,3709,3703,310,1309,618
-746,4012,3113,126,1259,491
-863,3949,2902,-33,1122,305
-872,3607,3026,-138,961,107
-898,2953,3298,-232,855,-35
-855,2733,3513,-275,818,-73
-805,2929,3575,-320,836,-77
-774,2962,3485,-416,873,-119
-722,2746,3535,-511,895,-170
-664,2626,3741,-521,928,-202
-710,2860,3764,-485,1015,-233
-862,2956,3228,-510,1112,-300
-1016,2901,2789,-547,1096,-386
-1016,2901,2789,-547,1096,-386
-1134,2726,2567,-614,1010,-473
-1226,2443,2523,-747,903,-529
-1241,2338,2715,-825,801,-560
-1186,2492,2965,-820,745,-592
-1147,2504,2990,-817,736,-661
-1120,2200,2922,-925,740,-713
-1121,2076,3071,-1021,721,-715
-1143,2099,3147,-1024,726,-729
-1222,1898,3030,-1063,760,-759
-1367,1884,2934,-1051,768,-787
-1579,1710,2463,-1003,762,-844
-1746,1385,2145,-1013,676,-879
-1829,1197,2136,-1020,535,-884
-1862,1437,2328,-1021,394,-879
-1832,1676,2423,-1047,284,-925
-1737,1390,2537,-1141,186,-1003
-1661,790,2823,-1231,105,-1042
-1599,501,3108,-1238,66,-1007
-1629,556,3208,-1188,77,-964
-1772,716,2874,-1106,105,-966
-1942,759,2290,-1054,63,-1023
-1991,739,2123,-1049,-82,-1095
-1904,614,2188,-1070,-259,-1172
-1724,168,2361,-1146,-414,-1236
-1549,-187,2753,-1223,-527,-1231
-1364,-160,3003,-1282,-565,-1181
-1199,-96,3183,-1376,-573,-1145
-1230,-107,3347,-1524,-556,-1114
-1360,-62,3360,-1661,-521,-1082
-1557,-83,3068,-1741,-495,-1079
-1743,-326,2461,-1854,-540,-1074
-1744,-836,2447,-1839,-685,-1117
-1681,-1442,2674,-1628,-790,-1170
-1500,-1863,2903,-1410,-844,-1151
-1330,-1901,3221,-1187,-877,-1081
-1209,-1619,3213,-1084,-870,-976
-1042,-1451,3043,-1112,-885,-909
-921,-1514,3143,-1209,-953,-879
-833,-1566,3316,-1268,-1003,-871
-738,-1722,3399,-1291,-1014,-898
-737,-1885,3527,-1261,-1014,-928
-759,-1818,3654,-1162,-1003,-941
-767,-1974,3577,-1122,-983,-957
-785,-2434,3617,-1119,-992,-942
-898,-2832,3716,-996,-1001,-891
-1067,-3028,3669,-877,-981,-782
-1077,-2694,3406,-777,-973,-640
-875,-2432,3255,-718,-1017,-573
-637,-2638,3509,-754,-1093,-541
-487,-2667,3990,-767,-1133,-472
-384,-2523,4029,-722,-1089,-421
-301,-2652,3922,-718,-1053,-405
-287,-2685,4187,-699,-1049,-373
-331,-2582,3962,-648,-1020,-325
-299,-2707,3901,-679,-1032,-291
-181,-2932,4244,-594,-1034,-272
-204,-3225,3946,-416,-952,-245
-171,-3207,3439,-238,-949,-167
-69,-3003,3685,-144,-1023,-102
-120,-3122,3911,-75,-1031,-66
-41,-3102,3994,-5,-999,0
118,-3142,4151,86,-960,56
209,-3004,4387,195,-901,130
222,-2789,4258,330,-815,194
242,-2652,3979,433,-763,244
296,-2487,3934,484,-766,285
372,-2583,4050,520,-774,305
478,-2768,4323,610,-760,334
478,-2768,4323,610,-760,334
635,-2763,4671,775,-698,387
705,-2375,4907,942,-578,462
567,-1737,4771,1050,-440,500
421,-1372,4603,1077,-354,480
332,-1518,4475,1107,-318,439
297,-1617,4450,1143,-324,449
272,-1556,4525,1168,-329,501
318,-1284,4322,1127,-314,580
357,-1311,4060,1036,-346,618
394,-1440,4250,958,-408,657
444,-1359,4435,988,-405,706
512,-1192,4196,1027,-371,741
561,-937,4521,1048,-381,746
582,-507,4991,1125,-322,703
535,-274,4972,1211,-199,628
392,-284,4811,1277,-113,568
277,-450,4431,1276,-69,566
246,-407,4474,1233,-104,614
275,-318,4504,1220,-122,656
289,-614,4373,1216,-132,688
294,-684,4526,1286,-145,744
264,-226,4366,1323,-114,818
285,91,4243,1288,-106,828
320,246,4527,1260,-112,790
331,471,4648,1255,-66,731
276,485,4558,1249,-15,664
239,709,4492,1194,0,635
172,773,4396,1135,-2,593
150,374,4171,1074,-32,559
145,330,4419,1023,-97,605
120,976,4515,1045,-101,641
81,1083,4093,1000,-99,587
101,1252,4492,887,-180,543
96,1595,4613,789,-183,487
44,1017,4204,684,-177,386
-24,424,4320,646,-232,364
-103,814,4344,721,-244,401
-58,1225,3942,771,-252,373
57,944,3966,691,-330,315
149,1237,4652,618,-384,312
236,1911,4732,568,-325,263
390,1516,4705,478,-282,130
402,784,5018,441,-243,63
228,1063,4965,506,-150,95
81,1605,4473,561,-77,68
53,1737,4364,506,-102,-23
40,1695,4516,377,-142,-101
0,1519,4501,261,-155,-156
-14,1385,4489,150,-176,-173
8,1638,4616,59,-199,-172
65,1635,4601,-16,-195,-223
112,1237,4574,-90,-194,-272
118,1147,4772,-145,-195,-256
104,1519,4839,-194,-166,-227
141,1762,4770,-267,-138,-260
166,1574,4676,-354,-122,-341
172,1498,4749,-382,-110,-426
196,1441,4692,-345,-73,-532
205,1251,4529,-333,-48,-627
230,1143,4499,-375,-61,-673
269,1022,4519,-444,-83,-693
320,880,4452,-513,-105,-692
403,666,4423,-598,-137,-675
501,601,4540,-684,-162,-648
546,618,4636,-718,-161,-642
578,646,4644,-707,-136,-667
579,586,4581,-701,-104,-715
592,512,4536,-710,-84,-762
595,425,4495,-733,-68,-802
568,193,4427,-759,-55,-836
568,193,4427,-759,-55,-836
536,-106,4464,-756,-46,-849
502,-103,4526,-725,-23,-826
457,17,4362,-693,3,-809
420,-79,4239,-695,0,-818
443,-210,4294,-694,-14,-823
513,-355,4321,-675,-12,-819
529,-437,4324,-672,-6,-793
553,-445,4327,-684,-6,-759
516,-306,4468,-685,-3,-741
517,-202,4446,-644,20,-759
532,-533,4219,-623,43,-794
505,-727,4234,-627,30,-777
451,-619,4161,-642,20,-740
414,-728,3951,-667,4,-733
470,-1161,4020,-681,-38,-724
536,-1221,4379,-651,-58,-654
570,-931,4130,-607,-30,-594
589,-1105,4169,-611,-46,-592
624,-1321,4419,-576,-42,-566
605,-1342,4195,-517,0,-519
546,-1256,4124,-472,7,-489
516,-1080,4132,-447,9,-478
530,-1372,4039,-426,8,-490
536,-1633,4179,-404,-7,-454
500,-1351,4309,-341,-4,-386
509,-1119,4196,-270,8,-371
551,-1312,4241,-248,0,-376
576,-1383,4363,-232,0,-335
573,-1335,4225,-216,15,-281
598,-1542,4122,-220,9,-235
575,-1668,4146,-235,-6,-155
487,-1363,4106,-218,-12,-75
442,-1054,4117,-162,-17,-71
466,-1250,4105,-106,-16,-119
465,-1503,4162,-68,-16,-122


47,1441,4824,1012,937,196
-12,1765,4745,921,1003,219
-117,1781,4419,742,1056,234
-201,1759,4244,575,1049,264
-338,1741,4066,470,1024,288
-516,1875,3755,351,985,329
-653,1993,3540,228,902,350
-690,2288,3561,150,797,339
-647,2467,3703,90,726,265
-570,2342,3708,9,704,162
-525,2162,3733,-73,689,81
-507,1975,3839,-132,680,26
-495,1878,3927,-93,697,0
-539,1769,3882,-118,748,5
-644,1900,3712,-109,785,45
-755,2360,3271,-63,788,51
-909,2465,2709,-188,724,3
-921,2577,2519,-407,566,-49
-875,2548,2747,-538,381,-151
-736,2439,3067,-610,253,-264
-604,2313,3452,-647,201,-372
-518,2192,3656,-628,221,-469
-469,1983,3713,-656,276,-533
-529,1934,3722,-735,336,-540
-655,2187,3591,-836,401,-527
-796,2440,3314,-895,436,-576
-922,2344,3019,-1000,430,-664
-1036,1838,2808,-1065,380,-744
-1108,1425,2750,-1041,291,-767
-1134,1384,2734,-1025,207,-741
-1100,1531,2734,-1036,125,-733
-1041,1554,2831,-1097,52,-760
-981,1640,3045,-1144,0,-812
-943,1363,2980,-1203,-10,-885
-897,901,3045,-1263,-40,-927
-953,600,3145,-1259,-59,-918
-1040,705,2930,-1308,-63,-855
-1012,1113,2864,-1377,-126,-830
-997,1061,3034,-1409,-202,-909
-1042,722,3086,-1430,-248,-994
-1075,478,2959,-1493,-276,-1036
-1103,-58,2768,-1504,-321,-1085
-1052,-651,2804,-1379,-389,-1115
-972,-1107,2897,-1220,-444,-1083
-898,-1045,3169,-1145,-492,-967
-867,-639,3197,-1102,-494,-872
-832,-634,2975,-1096,-504,-871
-826,-1045,2913,-1076,-576,-888
-779,-1162,3168,-1076,-662,-832
-691,-923,3429,-1031,-703,-785
-658,-926,3399,-983,-695,-800
-682,-1118,3335,-937,-704,-819
-704,-1057,3280,-911,-737,-806
-666,-1037,3103,-898,-786,-815
-562,-1237,3067,-888,-870,-845
-429,-1678,3386,-868,-955,-854
-338,-1993,3714,-814,-974,-787
-323,-1900,3785,-784,-940,-654
-327,-1760,3722,-754,-908,-556
-292,-1774,3807,-664,-900,-521
-193,-1841,4041,-530,-877,-520
-89,-2122,4044,-435,-824,-511
-68,-2132,4211,-361,-800,-447
-135,-1667,4402,-289,-760,-368
-135,-1667,4402,-289,-760,-368
-213,-1455,4125,-262,-698,-358
-249,-1939,3777,-285,-695,-377
-249,-2376,3721,-301,-754,-319
-304,-2372,3681,-292,-807,-205
-270,-2139,3447,-302,-849,-127
-192,-2207,3390,-302,-931,-117
-53,-2149,3806,-240,-1028,-111
158,-1915,4323,-168,-1048,-120
353,-2003,4637,-104,-990,-160
494,-2355,4878,-17,-911,-159
532,-2483,4797,40,-817,-65
473,-2412,4510,43,-746,61
463,-2335,4400,59,-727,143
462,-2506,4477,129,-713,179
494,-2623,4496,244,-679,242
547,-2663,4590,414,-628,303
572,-2788,4292,622,-564,363
661,-2704,4244,770,-562,452
736,-2566,4598,882,-555,535
750,-2398,4576,1029,-474,607
716,-2285,4150,1148,-407,666
686,-2014,3843,1178,-411,735
761,-1776,3789,1176,-471,780
893,-1747,4256,1209,-542,803
999,-1390,4781,1292,-514,858
1040,-802,4633,1346,-411,890
1068,-833,4337,1370,-369,850
1040,-1068,4492,1414,-378,833
897,-632,4369,1447,-342,893
853,392,4214,1403,-325,905
810,531,4255,1380,-347,772
862,338,4339,1299,-363,684
951,155,4491,1209,-372,663
999,125,4681,1189,-363,685
950,675,4682,1191,-319,727
865,1180,4514,1148,-280,695
872,1057,4425,1066,-271,599
864,493,4414,978,-272,543
766,405,4377,931,-264,590
638,716,4128,916,-248,636
611,918,3863,898,-272,616
582,1036,4039,848,-339,572
585,1205,4210,814,-373,529
605,1169,4160,793,-386,478
582,1172,4278,780,-408,435
581,1236,4255,776,-409,405
666,1063,4053,727,-422,387
795,1174,4289,640,-485,404
826,1543,4633,537,-503,404
790,1532,4543,450,-468,343
806,1361,4635,410,-447,279
870,1025,4488,452,-412,216
964,677,4533,452,-399,207
978,685,4718,448,-367,252
977,965,4665,471,-308,284
984,1019,4596,459,-272,278
961,867,4815,463,-252,266
946,933,4884,530,-188,280
913,1107,4692,581,-122,293
898,1439,4677,578,-114,293
860,1480,4850,537,-103,264
809,1708,4810,470,-74,256
821,2044,4817,359,-70,219
821,2076,5067,257,-76,131
772,2160,5232,212,-46,51
728,2433,5131,166,-7,-28
694,2692,5164,48,2,-126
605,2741,5010,-88,18,-237
605,2741,5010,-88,18,-237
541,2598,4647,-234,0,-333
564,2520,4651,-391,-67,-407
635,2520,4747,-538,-110,-469
734,2308,4574,-681,-127,-529
841,2040,4493,-840,-162,-563
932,1798,4464,-993,-182,-576
994,1799,4479,-1106,-183,-592
1062,1803,4406,-1175,-155,-653
1130,1562,4345,-1213,-116,-757
1161,1076,4162,-1227,-74,-841
1116,681,4053,-1226,-47,-867
1077,708,3945,-1182,-26,-861
1054,741,3761,-1150,-12,-882
1015,424,3592,-1137,-20,-932
942,60,3508,-1125,-54,-939
913,74,3540,-1119,-96,-896
925,142,3570,-1107,-131,-879
993,34,3675,-1106,-161,-886
1055,-113,3895,-1091,-168,-902
1097,-302,4033,-1011,-142,-921
1090,-485,3886,-923,-106,-917
1092,-462,3818,-859,-110,-895
1188,-405,3979,-840,-130,-892
1267,-510,4164,-842,-122,-901
1295,-820,4104,-828,-96,-899
1270,-1179,4040,-809,-80,-866
1203,-1157,4022,-766,-75,-801
1209,-1038,4049,-685,-82,-759
1275,-1282,3986,-671,-95,-726
1283,-1568,4055,-668,-121,-660
1322,-1666,4184,-619,-127,-567
1352,-1450,4212,-570,-104,-489
1372,-1480,4070,-547,-75,-474
1357,-1781,4166,-496,-67,-479
1350,-1675,4326,-402,-38,-450
1353,-1646,4141,-316,5,-435
1387,-1985,4119,-281,4,-405
1353,-2161,4306,-238,0,-314
1271,-1910,4202,-155,28,-206
1233,-1651,4071,-95,27,-140
1236,-1675,4174,-86,0,-99
1204,-1685,4255,-77,-7,-33
1171,-1484,4163,-39,-7,31
1193,-1165,4246,0,-24,64
1270,-1016,4404,15,-20,54
1299,-1099,4510,7,6,47
1255,-1186,4533,20,51,65
1245,-1104,4462,54,86,101
1276,-821,4638,94,101,129
1269,-520,4760,155,143,113
1234,-410,4692,235,191,58
1136,-604,4550,275,214,11
1103,-697,4439,268,212,31
1132,-610,4533,278,186,64
1161,-558,4688,297,179,88
1158,-454,4685,327,198,113
1114,-348,4359,352,216,120
1112,-356,4156,287,177,122
1157,-459,4193,190,107,133
1175,-510,4337,124,43,160
1196,-407,4390,126,6,175
1325,-177,4547,41,-13,203
1414,2,4559,-6,-37,188
1385,-23,4490,-29,-70,111
1341,-254,4545,-101,-103,57
1361,-427,4773,-177,-116,57


-1087,2597,3094,-596,981,-52
-1150,2853,3041,-677,953,-11
-1168,3419,2955,-775,910,-18
-1172,3795,2737,-965,857,-113
-1091,3856,2641,-1230,769,-275
-983,3558,2716,-1490,659,-473
-918,2786,3127,-1707,578,-645
-968,2121,3471,-1806,598,-697
-1079,2106,2991,-1788,650,-669
-1276,2230,2520,-1713,585,-680
-1395,2252,2439,-1667,460,-751
-1504,1772,2424,-1626,358,-864
-1522,1375,2215,-1601,268,-922
-1417,1220,2246,-1685,149,-928
-1248,817,2707,-1795,57,-949
-1162,266,3123,-1752,47,-956
-1110,244,3350,-1592,96,-919
-1174,304,3190,-1525,201,-889
-1334,663,2723,-1552,252,-909
-1574,1002,2368,-1496,192,-1034
-1766,660,1959,-1486,84,-1226
-1797,-181,1861,-1504,-96,-1365
-1667,-590,2250,-1551,-298,-1351
-1484,-664,2634,-1612,-436,-1274
-1316,-800,2965,-1678,-517,-1200
-1266,-1135,3235,-1622,-531,-1160
-1328,-1223,2988,-1490,-502,-1096
-1339,-986,2630,-1409,-524,-1038
-1265,-889,2637,-1406,-609,-1044
-1216,-955,2785,-1429,-691,-1080
-1195,-971,2759,-1476,-762,-1092
-1189,-1008,2587,-1592,-857,-1092
-1175,-1177,2592,-1759,-984,-1097
-1172,-1294,2784,-1842,-1091,-1113
-1058,-1267,2921,-1764,-1146,-1158
-940,-1779,2751,-1744,-1173,-1200
-829,-2493,2688,-1784,-1251,-1152
-794,-2743,3390,-1709,-1349,-1025
-663,-2402,3969,-1474,-1303,-902
-595,-2270,4012,-1200,-1142,-872
-494,-2135,3644,-994,-1004,-859
-336,-2151,3617,-948,-955,-856
-336,-2151,3617,-948,-955,-856
-274,-2399,3960,-933,-920,-855
-306,-2428,3994,-829,-839,-814
-383,-2410,3378,-810,-787,-736
-440,-2333,3205,-887,-862,-644
-476,-2372,3124,-937,-955,-595
-448,-2614,3145,-962,-1059,-573
-424,-2877,3540,-818,-1144,-569
-322,-2872,3472,-542,-1128,-557
-135,-2947,3145,-419,-1110,-539
58,-3151,3363,-368,-1156,-509
237,-3378,3703,-269,-1153,-454
396,-3587,3789,-183,-1109,-357
433,-3540,3951,-125,-1069,-222
418,-3268,3977,-16,-1011,-98
397,-3091,3624,40,-963,-11
409,-2989,3508,38,-997,42
458,-3098,3727,75,-1039,60
488,-3225,4180,236,-1032,77
550,-2927,4437,439,-942,123
657,-2678,4149,554,-829,160
722,-2732,4073,570,-806,189
728,-2811,4474,603,-802,243
743,-2636,4659,679,-733,322
759,-2313,4801,790,-663,385
810,-2039,4782,865,-588,422
815,-2099,4686,852,-526,440
733,-2320,4494,881,-492,485
706,-2143,4283,928,-484,572
697,-1922,4288,964,-492,616
746,-1913,4411,1023,-485,623
794,-1989,4395,1052,-449,650
805,-1752,4595,1092,-424,704
815,-1423,4717,1137,-359,724
793,-1398,4596,1209,-290,703
769,-1559,4500,1277,-262,708
751,-1673,4515,1370,-248,776
746,-1017,4522,1438,-228,880
749,-490,4330,1477,-203,875
701,-820,4218,1439,-211,807
665,-718,4534,1393,-227,821
737,-196,4632,1399,-184,821
701,-190,4414,1345,-132,751
636,-481,4218,1307,-125,699
666,-703,4161,1314,-140,699
715,-537,4371,1338,-154,739
698,-150,4584,1371,-127,767
731,41,4547,1414,-77,764
702,67,4497,1429,-48,760
604,567,4530,1396,-24,781
530,818,4284,1376,-2,729
457,586,4207,1320,-23,654
433,301,4196,1357,-49,616
376,211,4078,1391,-65,644
305,493,3921,1391,-99,697
249,777,3887,1385,-155,705
288,1240,4143,1412,-210,670
377,1746,4188,1328,-223,596
460,1715,4225,1141,-243,475
482,1285,4494,1035,-268,364
519,1132,4562,1028,-237,323
490,985,4361,1021,-194,306
419,1096,4241,983,-190,324
336,1638,4305,931,-220,333
308,1904,4345,888,-249,272
349,1618,4186,835,-275,179
372,1393,4464,753,-323,149
389,1779,4725,749,-306,142
449,2269,4590,734,-245,68
510,2393,4627,648,-221,-64
510,2393,4627,648,-221,-64
526,2055,4657,534,-191,-195
455,1620,4562,397,-162,-247
346,1588,4503,304,-149,-227
250,1756,4212,249,-149,-221
252,1750,4077,150,-195,-249
338,1636,4207,66,-267,-293
397,1539,4459,8,-298,-331
493,1717,4497,-57,-284,-357
525,1662,4428,-127,-269,-426
495,1507,4466,-189,-261,-497
559,1384,4518,-201,-247,-556
597,1300,4500,-236,-228,-588
557,1440,4550,-306,-216,-606
533,1440,4301,-379,-208,-642
536,1418,4385,-478,-249,-676
538,1442,4582,-544,-265,-717
597,1520,4419,-592,-252,-771
682,1406,4351,-679,-275,-841
784,1078,4541,-770,-300,-894
841,730,4463,-822,-287,-900
899,625,4448,-875,-286,-868
931,671,4628,-868,-274,-855
959,711,4555,-850,-224,-875
979,629,4452,-856,-187,-917
971,382,4363,-843,-167,-959
918,360,4376,-825,-155,-958
870,663,4337,-824,-136,-948
815,668,4178,-839,-128,-983
760,443,4162,-882,-139,-1016
717,165,4227,-902,-144,-1020
752,115,4091,-926,-143,-986
813,-6,4096,-940,-170,-969
845,-159,4222,-926,-189,-951
952,-229,4218,-904,-185,-926
1028,-303,4378,-877,-185,-904
1068,-340,4369,-851,-153,-885
1122,-699,4182,-834,-121,-877
1151,-1080,4190,-815,-116,-840
1119,-1214,4175,-750,-106,-772
1158,-1038,4162,-671,-96,-713
1188,-1078,4139,-617,-94,-696
1172,-1208,4353,-569,-96,-678
1180,-921,4323,-509,-61,-641
1241,-1119,4015,-497,-49,-641
1250,-1583,4215,-520,-84,-616
1246,-1475,4339,-474,-76,-529
1232,-1372,4104,-432,-49,-482
1222,-1676,4100,-407,-66,-452
1203,-1867,4197,-353,-69,-393
1203,-1683,4292,-244,-50,-326
1191,-1573,4193,-153,-9,-290
1143,-1754,4077,-109,2,-254
1113,-1748,4123,-60,0,-187
1055,-1676,4068,1,6,-127
1016,-1467,4145,81,7,-85
994,-1143,4267,169,18,-69
994,-896,4247,220,38,-79
997,-839,4357,210,38,-84
1020,-753,4444,162,42,-55
938,-662,4457,99,46,-14
834,-540,4507,74,56,9
798,-503,4357,87,75,6
806,-513,4305,67,60,9
782,-509,4390,31,40,22
740,-554,4188,1,37,44
731,-499,4057,-37,1,73
782,-395,4242,-54,-43,77
816,-509,4297,-63,-49,67
816,-509,4297,-63,-49,67
846,-463,4385,-61,-50,79
872,-323,4433,-60,-33,86
839,-322,4355,-79,-12,80
802,-336,4347,-82,-4,75
793,-371,4351,-51,1,66
753,-404,4247,-24,13,66
730,-330,4180,-26,4,82
752,-267,4195,-46,-18,90
777,-268,4245,-61,-36,86
811,-346,4156,-75,-45,79
848,-446,4184,-92,-70,80
859,-460,4289,-81,-80,81
865,-348,4350,-39,-65,73
910,-238,4358,13,-47,43
955,-304,4365,45,-39,14
964,-260,4441,62,-38,10
917,-170,4365,96,-30,-1
855,-123,4272,151,-42,-33


-410,1854,3752,10,839,309
-436,1575,3713,-199,737,384
-398,1624,3936,-326,634,481
-375,1707,4166,-400,594,555
-238,1811,4188,-493,601,623
-103,1691,4254,-569,595,661
-63,1768,4550,-572,594,698
-153,2130,4743,-488,674,686
-292,2537,4445,-335,802,580
-357,2478,4031,-204,886,388
-439,1826,3879,-218,909,233
-545,1403,3744,-288,908,224
-545,1403,3744,-288,908,224
-729,1250,3500,-315,882,288
-823,1343,3318,-272,806,359
-875,1453,3239,-259,700,412
-823,1543,3373,-238,578,442
-742,1583,3699,-175,500,426
-696,1754,4062,-80,500,391
-652,2281,4226,14,567,339
-666,2696,4093,35,653,224
-716,2658,3912,0,697,66
-745,2308,3949,0,702,-73
-719,1981,4090,0,733,-148
-758,1686,3949,-40,799,-151
-878,1793,3673,-107,831,-90
-951,2152,3407,-220,807,-41
-992,2450,3151,-359,731,-43
-1040,2626,3218,-470,618,-110
-1052,2475,3345,-528,543,-221
-1013,2198,3304,-555,506,-318
-1019,1927,3348,-588,465,-376
-1051,1944,3414,-626,435,-393
-1041,2009,3340,-692,417,-407
-1009,2018,3350,-760,386,-437
-1113,1915,3407,-851,371,-474
-1175,2415,3312,-952,378,-497
-1296,2387,3003,-1092,379,-616
-1406,1821,2767,-1213,322,-728
-1414,1401,2784,-1321,231,-762
-1446,1075,2738,-1406,152,-755
-1496,1051,2653,-1455,72,-736
-1566,1199,2641,-1454,-9,-764
-1552,1302,2612,-1463,-91,-836
-1457,1104,2607,-1530,-188,-919
-1375,699,2770,-1613,-290,-975
-1311,274,2988,-1675,-353,-993
-1282,13,3294,-1660,-361,-977
-1200,215,3321,-1500,-315,-976
-1058,154,2995,-1381,-270,-1036
-1052,-505,2808,-1330,-296,-1094
-1109,-806,2879,-1258,-370,-1038
-1120,-731,2794,-1203,-432,-957
-1165,-639,2836,-1191,-493,-917
-1188,-392,2960,-1091,-535,-933
-1198,-311,2948,-970,-554,-1005
-1119,-465,2960,-896,-590,-1072
-1021,-731,3026,-895,-645,-1077
-946,-848,3267,-1012,-711,-1001
-899,-966,3616,-1088,-747,-937
-892,-1229,3779,-1107,-721,-895
-949,-1471,3632,-1024,-676,-850
-949,-1471,3514,-897,-670,-798
-809,-1323,3663,-783,-680,-776
-742,-1276,3783,-680,-665,-784
-727,-1121,3643,-625,-654,-781
-672,-1412,3512,-645,-682,-809
-596,-2049,3433,-627,-731,-834
-505,-2336,3506,-613,-796,-766
-427,-2330,3666,-631,-829,-664
-406,-2214,3771,-617,-841,-583
-414,-1956,3804,-607,-838,-517
-483,-2095,3655,-589,-830,-503
-614,-2335,3432,-585,-863,-457
-606,-2244,3305,-620,-933,-379
-522,-2335,3479,-570,-1017,-365
-367,-2561,3673,-456,-1060,-360
-147,-2971,3601,-400,-1067,-314
15,-3538,3699,-360,-1084,-213
147,-3650,4067,-236,-1063,-63
221,-3615,4175,-19,-978,59
221,-3615,4175,-19,-978,59
308,-3372,4166,220,-892,161
387,-3117,4236,383,-826,239
422,-2681,4451,472,-772,316
424,-2274,4342,513,-711,347
408,-2475,4133,547,-688,328
448,-3094,4081,616,-698,350
488,-3071,4408,729,-714,465
491,-2421,4635,878,-643,563
501,-2057,4078,1043,-568,574
541,-2064,4149,1093,-611,572
632,-1906,4743,1142,-631,612
735,-1603,4940,1223,-549,652
742,-1381,4758,1267,-456,684
693,-1080,4763,1218,-411,731
653,-585,4917,1200,-367,757
618,-200,4653,1171,-315,737
571,-489,4307,1112,-325,681
497,-926,4293,1057,-382,684
401,-899,4285,1071,-412,739
346,-412,4142,1133,-423,763
382,-182,4074,1141,-445,723
518,-274,4393,1172,-478,671
626,-258,4801,1239,-454,659
583,109,4904,1323,-371,681
492,629,4674,1374,-291,683
414,893,4368,1319,-272,653
370,739,4219,1180,-321,625
338,381,4180,1044,-385,641
372,387,4174,982,-436,695
402,673,4261,943,-472,720
477,1172,4496,913,-487,696
621,1344,4668,925,-460,592
670,977,4676,936,-404,474
703,733,4684,952,-349,440
660,625,4522,962,-286,456
622,650,4209,962,-254,490
588,683,4216,941,-272,521
504,946,4273,972,-284,549
443,1451,4357,1026,-287,539
506,1743,4271,1054,-293,475
572,1754,4503,971,-336,412
610,1554,4714,888,-338,372
616,1478,4828,883,-294,348
658,1603,4936,972,-228,304
645,1554,4750,1068,-143,239
590,1892,4755,1081,-100,219
507,2641,4666,1009,-61,182
450,2894,4440,846,-65,79
382,2601,4420,603,-115,-8
372,2340,4322,373,-167,-31
401,2228,4384,195,-230,-25
434,2413,4544,75,-269,-23
522,2500,4562,3,-270,-62
558,2140,4329,-98,-272,-121
597,1974,4409,-201,-304,-139
667,2061,4611,-234,-306,-168
725,1992,4504,-266,-259,-233
775,1919,4388,-334,-233,-293
810,1870,4471,-395,-221,-361
776,1740,4447,-405,-189,-453
750,1649,4279,-366,-162,-543
810,1448,4165,-394,-177,-599
875,1309,4418,-489,-213,-602
895,1371,4465,-561,-199,-585
911,1385,4325,-627,-175,-597
917,1197,4327,-675,-176,-640
914,881,4292,-709,-170,-663
883,594,4200,-732,-171,-652
876,701,4223,-708,-185,-638
932,850,4258,-679,-187,-671
932,850,4258,-679,-187,-671
1016,643,4372,-664,-182,-736
1031,269,4390,-636,-156,-773
1048,186,4370,-604,-131,-747
1049,300,4262,-625,-115,-703
1045,395,4281,-700,-124,-676
1048,370,4357,-749,-126,-676
1002,291,4294,-742,-115,-696
960,234,4343,-712,-112,-737
916,91,4425,-663,-102,-760
927,75,4244,-632,-80,-754
941,-282,4203,-648,-93,-735
930,-326,4441,-639,-99,-663
883,-52,4250,-597,-61,-609
880,-71,4048,-588,-65,-610
931,-149,4384,-574,-105,-609
987,102,4591,-544,-74,-595
965,-39,4282,-549,-17,-615
908,-179,4286,-547,-17,-621
835,-166,4215,-524,-12,-615
777,-407,4028,-519,-15,-617
770,-495,4098,-514,-52,-587
849,-335,4343,-505,-68,-547
870,-377,4362,-506,-50,-523
819,-445,4345,-482,-34,-489
793,-283,4171,-479,-18,-452
830,-336,4055,-506,-41,-455
889,-677,4265,-519,-83,-460
923,-742,4416,-470,-78,-426
965,-644,4340,-409,-49,-394
986,-620,4309,-392,-34,-385
955,-892,4220,-388,-22,-385
919,-1089,4215,-376,-23,-347
854,-1108,4201,-329,-30,-287
932,-984,4191,-279,-31,-239
922,-1342,4068,-254,-41,-227
948,-1450,4328,-186,-60,-171
932,-1205,4357,-74,-23,-121
896,-1125,4149,-4,10,-102
860,-1183,4168,23,0,-76
840,-948,4295,76,-2,-40
876,-632,4427,132,0,-29
920,-498,4526,154,14,-42
915,-602,4409,124,27,-31
894,-521,4449,77,9,12
894,-378,4431,64,2,33
930,-523,4391,55,0,34
903,-563,4365,27,-4,65


296,1600,4843,320,946,876
142,1376,4467,395,1029,779
0,1515,4439,413,1043,765
-170,2007,4481,408,1065,759
-358,2127,4055,324,1108,710
-398,1956,3696,193,1072,649
-436,1855,3696,100,965,605
-484,2055,3740,44,863,579
-467,2149,3830,-40,777,536
-394,2199,4131,-174,705,513
-424,2241,4401,-202,682,476
-444,2335,4340,-253,726,448
-450,2519,4196,-383,760,437
-550,2670,4132,-443,761,376
-639,2789,4082,-441,775,266
-703,2589,3846,-433,803,125
-752,2369,3708,-437,784,28
-774,2340,3692,-488,742,-17
-719,2221,3726,-575,705,-54
-610,1941,3781,-653,677,-79
-589,1704,3988,-721,659,-62
-650,1768,4028,-732,697,-33
-693,2091,3765,-752,754,-28
-822,2253,3470,-733,753,-103
-980,2285,3113,-717,702,-214
-1093,1985,2846,-801,607,-322
-1118,1526,2982,-801,475,-416
-1089,1313,3259,-773,383,-436
-1016,1352,3417,-735,336,-417
-959,1563,3556,-721,315,-399
-853,1840,3677,-767,317,-405
-765,1608,3732,-861,339,-462
-760,1184,3826,-935,376,-484
-841,1234,3741,-933,428,-462
-957,1313,3414,-951,469,-471
-1134,1234,3076,-946,458,-518
-1270,1258,2829,-941,395,-578
-1359,1203,2624,-948,290,-654
-1344,1210,2483,-966,133,-721
-1285,1071,2744,-1048,-39,-779
-1126,677,3108,-1134,-162,-805
-984,409,3368,-1199,-227,-782
-895,646,3502,-1259,-254,-735
-798,768,3562,-1300,-259,-757
-705,559,3755,-1347,-252,-803
-701,442,3678,-1361,-213,-844
-807,501,3564,-1316,-191,-910
-936,361,3314,-1246,-175,-1008
-952,-144,3085,-1173,-194,-1105
-913,-959,2759,-1127,-252,-1140
-858,-1462,2787,-1147,-380,-1034
-850,-1301,3142,-1135,-484,-886
-850,-1301,3142,-1135,-484,-886
-843,-892,3284,-1076,-486,-819
-871,-836,3173,-964,-443,-859
-909,-923,2903,-920,-438,-914
-1021,-1138,2695,-908,-497,-929
-1076,-1268,2541,-856,-598,-906
-1044,-1401,2588,-862,-730,-862
-946,-1494,2886,-885,-856,-819
-830,-1632,3114,-831,-928,-799
-649,-1767,3305,-764,-958,-778
-517,-2116,3479,-654,-966,-759
-417,-2324,3647,-479,-959,-689
-351,-2136,3878,-349,-936,-584
-301,-1541,3919,-282,-903,-490
-244,-1193,3894,-295,-889,-475
-155,-1631,3862,-376,-896,-507
-106,-2103,4075,-411,-926,-477
-25,-2049,4142,-379,-916,-397
4,-2157,4163,-321,-896,-352
-64,-2150,4283,-173,-863,-311
-114,-2044,3833,-40,-795,-271
-126,-2197,3490,2,-805,-243
-36,-1991,3894,42,-889,-188
90,-1630,4450,86,-896,-168
121,-1828,4470,134,-813,-203
128,-2059,4346,190,-759,-177
131,-1906,4325,202,-734,-94
117,-1937,4166,180,-721,-28
174,-2150,4149,156,-740,26
192,-2394,4235,196,-742,87
282,-2435,4317,333,-732,154
407,-2269,4561,468,-699,211
464,-2063,4686,588,-626,247
426,-1826,4518,674,-543,275
421,-1600,4194,682,-503,293
444,-1695,4241,625,-535,294
480,-1963,4571,614,-550,324
433,-2040,4586,656,-510,402
345,-1740,4387,697,-478,498
262,-1553,4500,739,-464,546
224,-1235,4396,860,-439,575
285,-704,4197,935,-447,579
414,-659,4182,918,-488,525
490,-935,4224,875,-528,495
558,-905,4227,800,-548,523
567,-891,4257,804,-557,532
620,-857,4341,893,-554,526
640,-722,4385,923,-534,548
658,-378,4381,952,-511,562
714,-66,4464,992,-498,537
761,117,4543,986,-481,496
829,27,4683,970,-454,457
891,-114,4799,987,-409,457
878,-122,4657,948,-348,504
713,27,4473,943,-311,543
581,518,4141,985,-298,545
582,511,3765,941,-334,476
584,-27,3901,861,-427,429
574,70,4125,871,-475,472
657,479,3941,914,-486,493
749,445,4033,884,-537,464
822,267,4344,865,-562,461
871,555,4504,879,-544,494
879,985,4420,899,-512,480
874,898,4362,902,-503,410
840,537,4400,922,-493,368
853,543,4178,1001,-486,383
912,688,4235,1012,-507,398
898,745,4402,1032,-506,393
928,1206,4517,1090,-475,386
928,1206,4517,1090,-475,386
969,1474,4363,1103,-436,319
996,1155,4227,1022,-438,245
1076,1078,4430,938,-466,239
1100,1126,4424,872,-452,241
1129,919,4333,838,-430,227
1137,657,4517,878,-420,215
1103,801,4650,985,-370,240
1089,1268,4487,1091,-312,251
1089,1683,4515,1108,-304,222
1115,1813,4668,972,-306,192
1164,1633,5100,881,-293,168
1157,1913,5354,885,-218,185
1137,2336,5135,852,-114,173
1061,2304,4989,754,-65,125
934,2633,4933,632,-49,107
882,3043,4523,455,-53,54
868,2780,4390,204,-133,-45
985,2678,4852,-13,-219,-97
1231,2843,5232,-114,-207,-160
1333,2540,5198,-219,-122,-248
1234,2278,4834,-338,-50,-284
1164,2290,4543,-468,-29,-298
1185,2205,4459,-615,-38,-330
1199,2172,4543,-776,-44,-354
1171,2226,4380,-882,-21,-401
1156,2061,4162,-965,-15,-488
1158,1851,4106,-1026,-27,-570
1182,1614,3955,-1070,-29,-632
1216,1290,3806,-1147,-51,-666
1263,945,3848,-1230,-86,-667
1273,707,3946,-1271,-102,-644
1299,799,3958,-1313,-91,-608
1288,896,3826,-1355,-75,-617
1258,842,3667,-1416,-77,-660
1253,548,3558,-1502,-103,-704
1239,135,4068,-1486,-132,-748
1172,203,4256,-1309,-51,-764
1108,430,3584,-1194,37,-781
1115,145,3416,-1218,-7,-820
1117,-339,3728,-1260,-76,-806
1142,-338,3891,-1234,-93,-723
1145,-127,3832,-1180,-82,-665
1043,-195,3629,-1155,-82,-655
1047,-230,3657,-1120,-116,-654
1088,-453,3864,-1062,-143,-662
1134,-549,3985,-986,-132,-645
1140,-629,3890,-943,-108,-621
1132,-817,3931,-860,-107,-615
1151,-1011,3904,-730,-95,-610
1154,-1218,3813,-625,-84,-587
1162,-1102,4017,-521,-102,-539
1204,-994,4088,-430,-93,-511
1259,-924,4252,-410,-90,-474
1232,-744,4332,-428,-76,-431
1179,-887,4098,-451,-59,-418
1161,-1230,4065,-445,-79,-405
1161,-1231,4210,-375,-94,-363
1237,-1164,4119,-300,-85,-334
1289,-1384,4160,-273,-99,-315
1311,-1410,4218,-236,-102,-266
1355,-1358,4114,-210,-104,-222
1409,-1483,4263,-186,-123,-195
1462,-1487,4478,-140,-110,-149
1470,-1248,4467,-82,-66,-106
1435,-1075,4427,-34,-28,-99
1334,-1165,4367,16,0,-110
1322,-1009,4403,77,10,-88
1336,-745,4529,91,14,-66
1336,-745,4529,91,14,-66
1340,-709,4565,98,36,-66
1307,-888,4428,93,56,-51
1268,-827,4423,77,54,0
1214,-706,4270,64,54,43
1187,-651,4191,21,27,78
1214,-542,4376,-4,3,102
1228,-525,4387,-5,23,104
1184,-439,4317,-5,46,103


-355,1418,3672,-81,1128,137
-238,1551,4016,-256,1022,163
-217,1515,4400,-371,993,156
-286,1313,4263,-439,1039,163
-382,1366,3981,-573,1065,224
-422,1632,3909,-625,1039,245
-453,1571,3882,-675,1011,204
-467,1447,3909,-766,992,189
-477,1561,4025,-817,988,175
-571,1630,4098,-759,991,125
-698,1507,3880,-576,993,40
-911,1336,3424,-478,962,0
-1024,1377,2959,-461,848,9
-984,1359,2950,-510,670,0
-849,1285,3447,-596,525,-18
-758,1045,3696,-620,488,-55
-769,909,3668,-622,500,-61
-828,1073,3630,-657,505,-39
-951,1133,3540,-657,512,-56
-1045,1190,3392,-626,503,-78
-1059,1284,3312,-605,460,-105
-1088,1199,3294,-633,409,-137
-1068,1055,3392,-613,355,-167
-1068,1055,3392,-613,355,-167
-972,1076,3537,-527,316,-187
-951,1184,3585,-535,307,-193
-962,1136,3427,-616,311,-208
-948,1007,3363,-698,289,-227
-935,1010,3690,-734,251,-243
-942,959,3777,-687,270,-283
-1048,942,3468,-686,307,-306
-1099,1079,3306,-727,281,-330
-1119,941,3373,-767,234,-390
-1149,718,3418,-762,206,-439
-1168,740,3444,-767,179,-444
-1133,843,3400,-818,147,-441
-1107,703,3371,-864,101,-474
-1061,601,3350,-855,43,-498
-979,660,3245,-881,-20,-521
-945,541,3668,-950,-92,-567
-919,546,3772,-970,-70,-586
-906,705,3349,-1079,-79,-615
-1000,325,3595,-1191,-156,-685
-1181,-98,3729,-1206,-168,-709
-1296,-58,3678,-1170,-152,-671
-1299,50,3573,-1078,-135,-671
-1279,-223,3499,-978,-148,-727
-1325,-542,3660,-870,-171,-739
-1298,-412,3592,-764,-164,-693
-1183,-331,3275,-699,-173,-694
-994,-549,3295,-687,-249,-718
-802,-630,3738,-698,-320,-711
-689,-657,4108,-694,-294,-694
-698,-504,3773,-717,-203,-698
-843,-536,3114,-748,-180,-763
-932,-935,2744,-777,-262,-842
-965,-1339,2809,-790,-391,-869
-971,-1306,2869,-808,-497,-829
-960,-1302,2776,-811,-585,-826
-900,-1585,3053,-773,-683,-864
-816,-1860,3420,-714,-721,-851
-776,-1977,3462,-599,-701,-802
-776,-1836,3376,-543,-681,-716
-755,-1649,3288,-494,-682,-655
-681,-1605,3282,-467,-708,-638
-632,-1800,3259,-483,-737,-620
-538,-2011,3187,-508,-784,-571
-437,-2079,3276,-511,-858,-502
-371,-2000,3509,-472,-911,-452
-304,-2074,3609,-378,-925,-442
-244,-2127,3431,-273,-922,-434
-204,-2063,3357,-259,-958,-407
-167,-1947,3804,-232,-1006,-408
-86,-1998,4027,-85,-955,-439
7,-2329,3894,-6,-880,-432
58,-2408,4019,57,-856,-356
66,-2125,4110,140,-805,-282
93,-2064,3965,201,-741,-257
144,-2179,3832,225,-727,-219
167,-2116,3829,202,-757,-133
177,-2042,3892,154,-802,-57
213,-2042,4076,107,-838,-6
231,-2062,4159,134,-830,14
282,-2252,4009,188,-799,22
348,-2505,4167,265,-797,50
426,-2412,4308,401,-779,110
470,-2260,4371,515,-730,158
515,-2009,4426,598,-691,198
526,-1761,4492,633,-659,225
521,-1713,4285,595,-635,246
556,-1868,4218,546,-661,270
632,-2083,4494,533,-669,317
615,-2114,4499,599,-617,394
615,-2114,4499,599,-617,394
626,-1907,4205,712,-572,470
619,-1711,4056,766,-573,524
607,-1514,4077,787,-586,552
595,-1247,4051,815,-584,547
667,-1222,3995,841,-589,509
771,-1269,4226,877,-607,488
845,-1020,4389,909,-579,507
839,-756,4349,898,-539,520
831,-636,4479,896,-525,517
864,-404,4632,918,-504,521
830,-361,4624,940,-463,508
757,-558,4355,969,-423,501
716,-677,4083,971,-427,539
679,-489,4009,976,-461,589
669,-136,4073,996,-490,590
705,-59,4229,1032,-504,547
763,157,4550,1081,-502,514
773,477,4684,1128,-461,478
812,681,4521,1115,-413,427
837,399,4439,1004,-414,386
768,132,4499,914,-436,400
699,323,4492,926,-442,448
644,801,4388,929,-443,460
601,1007,4319,898,-467,403
669,781,4348,831,-508,347
759,571,4242,739,-541,357
789,636,4324,666,-591,382
826,932,4637,667,-613,367
931,1292,4727,705,-577,286
1013,1053,4788,683,-535,166
990,739,5003,683,-488,114
944,974,4648,701,-421,128
935,1217,4602,604,-427,117
887,1111,4846,572,-436,69
890,1106,4775,589,-400,44
879,1051,4501,593,-384,31
826,1208,4323,506,-409,45
808,1350,4227,391,-462,37
1000,1238,4396,307,-506,-3
1104,827,4579,255,-494,-51
1093,837,4664,301,-443,-57
1143,1285,4712,360,-369,-85
1201,1305,4729,406,-298,-182
1209,1166,4853,399,-247,-236
1200,1309,4966,362,-193,-234
1105,1500,4776,298,-139,-234
1029,1732,4635,193,-135,-248
1070,1890,4791,66,-172,-288
1149,1944,4901,-90,-188,-324
1222,1907,4804,-263,-197,-355
1281,1688,4838,-450,-223,-390
1356,1509,5031,-562,-228,-412
1462,1460,5016,-607,-174,-441
1479,1059,4698,-648,-112,-493
1495,708,4514,-704,-98,-496
1478,486,4471,-773,-91,-472
1528,374,4429,-775,-78,-457
1617,459,4494,-759,-57,-451
1689,573,4558,-770,-20,-473
1624,403,4471,-765,22,-516
1551,283,4326,-749,56,-542
1463,182,4233,-743,75,-568
1410,230,4234,-749,87,-583
1422,159,4251,-754,96,-599
1430,15,4230,-772,110,-598
1349,68,4077,-798,127,-580
1245,117,3736,-860,117,-579
1223,-78,3783,-881,52,-601
1223,-78,3783,-881,52,-601
1269,-268,3859,-892,10,-602
1299,-390,3970,-889,-3,-586
1315,-334,4015,-855,3,-571
1315,-303,3911,-833,28,-578
1267,-472,3698,-852,31,-596
1226,-685,3707,-835,1,-604
1231,-746,3778,-799,-15,-588
1248,-837,3744,-770,-13,-572
1256,-930,3875,-730,-18,-552
1257,-904,3897,-665,-6,-528
1246,-980,3875,-594,0,-505
1252,-1035,3912,-526,8,-472
1235,-851,3795,-477,6,-443
1263,-737,3908,-448,-12,-448
1321,-858,4115,-420,-17,-466
1357,-888,4125,-397,12,-450
1333,-942,3840,-408,26,-427
1300,-1190,3840,-426,-4,-399
1232,-1114,4014,-401,-27,-335
1205,-650,3888,-356,-21,-309
1231,-821,3825,-350,-49,-361
1304,-1225,4152,-385,-81,-350
1250,-1279,4116,-402,-53,-280
1149,-1050,3913,-332,-35,-249
1146,-1135,3859,-243,-48,-269
1219,-1305,3873,-219,-68,-251
1229,-1254,3853,-221,-97,-207
1263,-1183,4096,-168,-124,-186
1295,-1182,4042,-110,-102,-183
1341,-1061,4090,-74,-102,-181
1407,-932,4287,-74,-103,-183
1423,-1105,4376,-88,-85,-179
1402,-1202,4396,-74,-58,-141
1400,-1090,4234,-46,-34,-96
1394,-1025,4208,-44,-38,-75
1384,-1000,4277,-40,-47,-60
1371,-963,4199,-39,-42,-43


3,939,4381,-415,667,720
-64,1049,4475,-560,646,739
-74,1500,4581,-550,620,728
-109,1456,4640,-553,620,666
-183,1061,4561,-493,606,631
-214,1037,4661,-496,584,691
-198,1165,4682,-520,585,755
-213,1243,4671,-525,595,791
-228,1695,4896,-483,622,783
-185,1958,4801,-334,701,655
-137,1573,4639,-260,773,479
-158,1026,4603,-280,827,388
-217,900,4625,-227,867,390
-412,1050,4292,-171,918,411
-673,1219,3627,-166,907,407
-827,1204,3412,-170,788,367
-827,1012,3587,-173,651,342
-699,977,3882,-232,556,379
-601,1359,4210,-305,526,421
-591,1732,4255,-328,559,374
-570,1741,4187,-301,604,239
-553,1260,4132,-250,642,86
-588,768,3998,-230,675,27
-696,775,3682,-273,671,65
-826,975,3472,-332,607,96
-894,1293,3539,-375,521,87
-873,1608,3663,-393,467,9
-860,1608,3758,-422,443,-125
-888,1478,3828,-465,440,-249
-918,1409,3680,-492,442,-337
-894,1460,3701,-551,403,-390
-837,1784,3834,-628,374,-441
-818,1662,3640,-745,367,-545
-839,1204,3572,-901,318,-608
-866,1090,3762,-1013,274,-612
-866,1175,3707,-1101,274,-612
-874,1108,3566,-1135,262,-676
-936,680,3589,-1092,225,-766
-1020,425,3672,-1035,213,-801
-1058,485,3429,-997,224,-801
-1085,503,3410,-940,194,-836
-1173,598,3327,-885,169,-880
-1214,673,2981,-910,126,-929
-1219,291,2852,-1023,27,-983
-1216,-70,3002,-1083,-77,-993
-1170,70,3050,-1045,-144,-977
-1082,230,2641,-1078,-193,-1006
-1062,-154,2305,-1208,-318,-1077
-961,-734,2656,-1306,-495,-1104
-846,-1152,3395,-1237,-565,-1102
-852,-1428,3645,-1074,-492,-1061
-785,-1389,3548,-886,-404,-985
-670,-1399,3583,-751,-362,-924
-668,-1207,3790,-714,-333,-834
-695,-686,3661,-645,-287,-778
-733,-554,3214,-540,-271,-839
-750,-1049,2923,-572,-344,-895
-722,-1455,3241,-583,-472,-874
-611,-1512,3589,-513,-535,-811
-569,-1458,3571,-496,-543,-746
-592,-1362,3542,-543,-558,-701
-598,-1390,3664,-550,-562,-695
-631,-1530,3755,-501,-533,-709
-631,-1530,3755,-501,-533,-709
-684,-1523,3695,-383,-490,-718
-717,-1670,3384,-288,-469,-724
-738,-1905,3075,-230,-515,-706
-647,-2075,2966,-262,-619,-644
-526,-2032,3347,-316,-731,-558
-433,-1699,3540,-302,-774,-496
-319,-1639,3415,-294,-797,-502
-237,-1961,3434,-371,-847,-511
-196,-2241,3686,-441,-896,-479
-136,-2251,3990,-432,-908,-423
-93,-2145,4180,-376,-867,-381
-95,-2048,4004,-342,-803,-359
-176,-2186,3616,-336,-785,-356
-208,-2471,3418,-341,-842,-329
-195,-2486,3420,-327,-923,-280
-89,-2573,3337,-329,-997,-233
104,-2504,3492,-352,-1094,-166
296,-2201,3595,-443,-1167,-95
455,-2330,3867,-624,-1226,-65
626,-2651,4597,-637,-1230,-65
637,-2893,4459,-560,-1108,-18
625,-2945,4052,-536,-1052,85
662,-2796,4655,-444,-1088,170
746,-2521,5424,-162,-998,176
824,-2585,5184,130,-779,146
806,-2847,4611,291,-641,183
750,-2839,4266,340,-616,286
768,-2513,4378,371,-642,381
899,-2202,4650,413,-631,409
994,-2435,4677,479,-572,404
1042,-2416,4768,574,-520,450
1042,-2299,4758,707,-446,493
1013,-2303,4554,827,-377,527
1016,-2061,4490,881,-335,584
1000,-2050,4348,933,-297,597
926,-2357,4169,940,-279,637
905,-1882,4484,992,-288,727
884,-1252,4516,1105,-230,739
859,-980,4388,1221,-189,680
786,-595,4297,1213,-178,650
680,-355,4193,1111,-181,609
586,-380,4081,1020,-203,556
506,-563,3881,943,-249,530
472,-673,3736,841,-322,558
475,-1025,3562,775,-404,592
522,-1551,3665,830,-493,653
653,-1044,4048,966,-535,778
772,24,4094,1105,-498,802
847,463,4206,1165,-454,676
935,481,4451,1195,-394,534
944,576,4347,1173,-325,444
864,344,4061,1074,-296,376
797,202,4175,961,-330,361
747,358,4269,881,-346,376
667,303,4210,840,-348,355
606,-48,4091,884,-351,323
572,13,3934,946,-369,337
663,423,3888,944,-415,344
772,576,4217,909,-468,289
904,761,4488,885,-466,226
1005,740,4476,807,-434,156
973,365,4588,749,-418,98
892,164,4639,751,-381,103
827,266,4373,758,-345,138
818,252,4253,774,-359,150
817,171,4301,770,-391,169
870,604,4351,753,-418,209
936,996,4524,675,-436,173
968,678,4747,606,-431,85
968,678,4747,606,-431,85
1041,419,4693,607,-400,51
1150,666,4923,599,-385,57
1217,837,5075,583,-326,26
1239,725,5027,555,-253,-21
1174,692,5100,546,-207,-37
1125,934,5030,549,-156,-39
1141,1300,5081,521,-135,-62
1240,1564,5350,425,-116,-112
1270,1420,5494,325,-62,-181
1216,1368,5480,234,0,-204
1128,1486,5346,114,50,-196
1004,1599,5159,12,78,-210
876,1610,4846,-75,90,-246
829,1544,4599,-187,64,-291
846,1309,4638,-310,25,-337
841,1201,4561,-412,17,-350
795,1151,4220,-528,11,-356
754,942,4037,-647,-34,-374
827,814,4186,-714,-85,-391
933,818,4254,-744,-86,-417
963,878,4327,-720,-57,-480
1011,730,4175,-668,-4,-572
1050,360,4006,-658,13,-626
1022,46,3910,-679,5,-614
966,77,3811,-704,-12,-561
1006,302,3859,-713,-45,-536
1069,321,4009,-714,-69,-565
1154,348,4192,-705,-64,-599
1150,312,4167,-703,-28,-636
1079,108,3984,-720,-7,-667
1040,-65,3918,-714,-16,-682
1086,-145,3953,-692,-30,-687
1159,-126,4170,-674,-36,-691
1153,-168,4204,-666,-5,-698
1096,-218,4038,-665,18,-698
1015,-286,3873,-658,20,-714
984,-521,3760,-632,0,-735
1033,-684,3720,-628,-44,-718
1109,-620,3931,-640,-101,-682
1224,-486,4145,-621,-117,-669
1279,-592,4102,-634,-96,-683
1269,-867,4062,-648,-87,-685
1244,-1038,4053,-629,-81,-654
1240,-1017,4025,-589,-72,-613
1183,-985,3958,-553,-64,-586
1156,-966,3817,-522,-68,-579
1183,-1055,3848,-505,-91,-582
1214,-1168,3897,-470,-99,-580
1265,-1401,3852,-421,-98,-576
1279,-1651,3884,-358,-100,-549
1264,-1628,3932,-278,-95,-487
1301,-1489,3866,-215,-83,-436
1312,-1523,3851,-189,-85,-412
1306,-1485,4045,-161,-98,-383
1307,-1415,4156,-129,-82,-355
1315,-1485,4116,-110,-67,-325
1265,-1625,4065,-120,-67,-276
1211,-1495,4132,-107,-77,-214
1184,-1203,4116,-56,-77,-193
1219,-1387,3998,-28,-78,-213
1263,-1573,4151,-16,-109,-186
1314,-1304,4233,-5,-117,-120
1370,-1188,4278,-6,-116,-94
1446,-1308,4432,-8,-117,-78
1474,-1213,4592,-11,-96,-29
1440,-958,4542,-17,-47,4


-100,558,4458,-24,612,234
-104,561,4490,-45,615,250
-185,681,4541,-69,640,271
-229,1069,4444,-59,667,273
-231,1208,4521,-51,662,227
-351,754,4273,-60,677,185
-369,737,4185,-141,653,242
-298,1133,4478,-173,626,267
-342,919,4245,-182,669,212
-321,902,4044,-203,655,200
-325,988,4183,-179,609,164
-361,801,4189,-73,584,102
-424,708,4128,-2,567,89
-509,1010,4107,7,554,107
-560,1196,3952,-2,538,82
-578,1031,3846,-62,494,44
-541,838,3889,-137,437,36
-438,1103,4154,-205,394,50
-362,1328,4358,-226,410,2
-367,1183,4307,-221,457,-91
-422,981,4212,-217,496,-159
-449,963,4140,-215,511,-177
-516,1006,4089,-241,510,-172
-645,1267,3905,-282,495,-159
-750,1586,3738,-359,452,-191
-799,1286,3545,-421,389,-291
-795,832,3701,-446,310,-356
-753,873,3801,-437,275,-363
-682,1001,3681,-467,254,-378
-641,695,3883,-516,219,-411
-621,582,3960,-509,233,-406
-712,852,3790,-506,256,-396
-712,852,3790,-506,256,-396
-828,1032,3668,-523,252,-437
-915,932,3618,-565,227,-493
-931,807,3647,-600,194,-527
-938,768,3563,-628,160,-546
-948,786,3522,-691,112,-569
-956,584,3548,-754,61,-600
-944,471,3599,-752,19,-620
-903,486,3605,-729,-9,-639
-858,286,3526,-758,-38,-660
-865,82,3520,-796,-77,-665
-836,-69,3597,-802,-112,-670
-892,-376,3506,-791,-125,-669
-949,-258,3302,-773,-150,-638
-917,-162,3278,-756,-202,-647
-811,-354,3412,-712,-251,-682
-719,-429,3499,-648,-281,-696
-624,-400,3550,-597,-303,-699
-575,-690,3594,-588,-322,-703
-511,-885,3742,-592,-342,-657
-561,-852,3640,-618,-333,-584
-630,-612,3463,-659,-350,-529
-597,-339,3609,-665,-394,-538
-449,-393,3755,-614,-400,-614
-434,-820,3803,-599,-386,-660
-508,-862,3758,-608,-375,-627
-620,-693,3687,-608,-372,-612
-707,-904,3477,-599,-388,-645
-692,-1415,3418,-584,-444,-657
-599,-1522,3586,-551,-505,-601
-549,-1322,3557,-546,-537,-525
-518,-1113,3391,-565,-581,-485
-457,-1242,3327,-641,-655,-478
-375,-1480,3510,-716,-732,-462
-284,-1654,3723,-727,-772,-448
-205,-1899,3851,-653,-772,-451
-67,-1973,4080,-551,-758,-435
38,-1942,4287,-445,-710,-408
53,-2053,4082,-356,-639,-376
18,-2082,3877,-312,-617,-321
6,-2117,3832,-296,-636,-273
21,-2293,3807,-281,-660,-229
60,-2389,3940,-243,-685,-179
95,-2118,4180,-168,-682,-129
57,-1822,4094,-96,-639,-122
-30,-2032,3778,-67,-626,-145
-55,-2253,3708,-55,-671,-118
17,-2422,3633,-45,-725,-65
171,-2593,3703,-22,-778,-2
316,-2581,3814,4,-812,67
453,-2459,4015,61,-821,128
647,-2272,4153,127,-793,163
772,-2584,4068,185,-756,172
858,-2534,4381,270,-746,236
861,-2133,4582,380,-682,297
854,-2000,4394,441,-608,321
853,-2003,4473,424,-595,365
851,-1785,4689,408,-586,421
864,-1652,4766,435,-555,442
887,-1661,4759,466,-516,442
882,-1849,4637,487,-479,453
884,-1881,4547,497,-464,502
940,-1724,4791,495,-448,554
956,-1785,4872,568,-379,584
943,-1576,4583,669,-317,628
902,-1195,4628,686,-311,653
875,-853,4792,684,-294,640
794,-756,4739,686,-262,604
689,-618,4637,679,-248,588
708,-358,4648,665,-259,578
708,-358,4648,665,-259,578
692,-322,4794,601,-273,563
658,-361,4687,538,-265,565
672,-524,4583,482,-266,569
744,-712,4760,510,-272,586
753,-617,4738,591,-224,612
686,-370,4533,681,-164,611
632,-159,4374,737,-136,569
665,45,4392,783,-134,508
698,20,4328,770,-123,453
699,-116,4241,725,-129,426
692,-277,4139,681,-141,422
693,-365,4134,650,-158,442
686,-365,4167,646,-172,478
648,-100,4094,644,-180,517
641,185,4208,655,-194,513
650,191,4176,681,-182,468
670,77,4038,694,-177,431
684,-110,3967,702,-191,409
698,-268,3963,743,-205,410
748,11,4033,827,-203,410
765,228,4063,891,-190,361
768,254,4230,937,-177,309
716,503,4259,970,-155,288
652,800,4140,956,-151,265
620,923,4187,875,-190,236
611,930,4376,773,-231,225
591,1043,4427,675,-243,231
540,1036,4184,568,-253,217
522,979,4045,478,-302,195
587,718,4047,400,-360,167
675,531,4303,372,-406,161
803,678,4449,383,-397,166
878,866,4662,406,-360,129
903,1025,4688,442,-302,63
820,875,4596,454,-248,-4
718,732,4420,431,-222,-23
667,986,4348,387,-235,-9
671,979,4318,310,-256,-31
677,692,4460,245,-276,-44
712,938,4558,229,-272,-21
748,1184,4579,218,-254,-47
754,1099,4590,185,-232,-101
755,1010,4471,153,-216,-132
768,1033,4562,103,-223,-146
782,1018,4521,55,-210,-158
828,841,4474,-3,-213,-163
920,955,4836,-68,-228,-133
981,1483,4994,-114,-190,-117
1000,1702,4976,-138,-135,-199
973,1384,4820,-153,-91,-319
977,1255,4726,-193,-82,-377
1009,1115,4694,-286,-95,-397
1063,943,4745,-375,-110,-400
1127,918,4757,-438,-104,-398
1124,777,4669,-487,-90,-415
1134,580,4527,-525,-84,-428
1165,452,4607,-586,-92,-418
1202,633,4710,-628,-72,-408
1214,576,4637,-625,-20,-461
1178,326,4626,-598,24,-527
1190,196,4556,-539,73,-568
1156,11,4474,-505,106,-578
1103,133,4352,-512,127,-553
1018,64,4216,-532,123,-545
985,55,4194,-527,108,-541
945,-61,4030,-538,96,-551
977,-84,4100,-565,54,-541
1042,-11,4284,-601,29,-530
1027,43,4378,-632,36,-535
1027,43,4378,-632,36,-535
1035,221,4406,-649,57,-560
1039,-36,4340,-683,79,-609
1000,-411,4272,-702,100,-615
906,-409,4065,-704,113,-572
836,-292,3965,-697,95,-556
782,-382,3959,-678,66,-564
808,-432,3992,-656,38,-560
889,-638,3993,-653,12,-549
920,-749,4082,-663,-3,-513
910,-682,4026,-652,0,-483
983,-667,4012,-629,-6,-483
1046,-854,4182,-615,-10,-494
1032,-919,4199,-587,12,-479
1002,-1064,3963,-559,46,-467
916,-1332,3763,-563,27,-449
883,-1249,4050,-503,-12,-419
948,-1061,4082,-406,-4,-416
997,-1200,4149,-356,-12,-427
1010,-1335,4218,-351,-13,-399
1021,-1428,4097,-345,-13,-348
996,-1483,4124,-322,-25,-305
970,-1492,4056,-249,-20,-283
997,-1312,4071,-171,-23,-263
1030,-1346,4082,-161,-28,-251
1074,-1541,4219,-161,-37,-211
1062,-1469,4225,-123,-21,-142
1000,-1246,4022,-77,-3,-99


-557,536,3713,-298,872,136
-563,691,3689,-291,743,170
-537,496,3869,-342,627,184
-537,496,3869,-342,627,184
-399,638,4267,-430,562,250
-304,1028,4536,-440,565,276
-329,1201,4519,-276,592,207
-310,1185,4593,-162,632,100
-278,895,4768,-84,721,-8
-358,415,4514,7,842,-70
-533,284,4065,66,908,-34
-790,542,3576,92,886,18
-1008,788,3253,106,782,12
-1055,887,3258,75,645,-31
-1047,834,3413,-31,519,-65
-1035,800,3562,-112,413,-80
-942,686,3707,-162,329,-87
-779,700,4086,-200,273,-73
-636,991,4485,-194,288,-67
-607,1109,4310,-176,368,-115
-752,1102,4079,-224,415,-179
-950,1057,3929,-306,430,-222
-1092,957,3470,-376,419,-258
-1204,750,3337,-457,327,-295
-1200,701,3553,-457,231,-322
-1130,835,3608,-432,181,-356
-986,898,3772,-488,134,-399
-845,787,4203,-586,111,-435
-810,770,4422,-656,161,-452
-867,700,4284,-714,245,-473
-949,505,4095,-738,307,-505
-1148,329,3827,-726,329,-530
-1277,388,3754,-671,299,-533
-1333,598,3648,-626,256,-549
-1299,612,3539,-687,191,-581
-1318,56,3498,-730,109,-626
-1223,3,3646,-712,32,-612
-1096,223,3840,-744,-3,-607
-1136,26,3695,-786,-6,-645
-1155,103,3655,-824,-38,-652
-1132,368,3704,-925,-71,-662
-1141,330,3626,-1009,-95,-724
-1107,-70,3611,-1011,-123,-808
-1111,-670,3712,-912,-131,-860
-1079,-800,3568,-809,-112,-813
-1051,-487,3402,-775,-127,-738
-1100,-209,3295,-780,-163,-718
-1057,-384,3130,-761,-207,-776
-1044,-806,3104,-787,-277,-807
-1037,-813,3238,-812,-346,-785
-1039,-855,3233,-773,-383,-805
-979,-878,3435,-738,-422,-836
-949,-742,3631,-716,-433,-848
-889,-404,3605,-705,-428,-861
-771,-514,3348,-777,-445,-914
-727,-1380,3337,-906,-518,-944
-753,-1973,3592,-969,-582,-857
-796,-1949,3594,-903,-593,-731
-820,-1558,3467,-764,-593,-676
-762,-1415,3481,-692,-596,-704
-703,-1779,3416,-628,-596,-754
-693,-1926,3403,-566,-607,-740
-603,-1662,3430,-513,-623,-697
-489,-1635,3392,-520,-647,-692
-474,-2264,3399,-573,-694,-685
-515,-2526,3369,-602,-743,-577
-427,-2150,3379,-594,-799,-457
-266,-2165,3431,-577,-848,-442
-137,-2339,3811,-526,-882,-447
-26,-2145,4078,-379,-841,-448
22,-2394,3846,-301,-759,-460
11,-2491,3917,-277,-753,-415
5,-2140,4118,-253,-750,-360
5,-2140,4118,-253,-750,-360
-29,-1968,3900,-271,-738,-336
-60,-1985,3548,-391,-787,-302
-47,-2157,3329,-594,-902,-237
-8,-2316,3305,-772,-1035,-155
57,-2492,3749,-783,-1133,-112
112,-2734,4019,-571,-1097,-114
195,-2893,3424,-367,-991,-87
404,-3003,3323,-230,-999,-47
636,-3016,4022,-91,-1017,-8
770,-2911,4369,70,-914,37
824,-2805,4248,235,-773,87
771,-2797,3980,311,-675,150
696,-2692,3897,380,-637,223
685,-2803,3871,465,-613,272
711,-2934,3984,587,-602,317
785,-2722,4343,729,-568,373
799,-2610,4341,889,-482,405
711,-2514,4334,1007,-418,445
623,-2151,4333,1094,-367,490
583,-1711,3985,1098,-332,515
619,-1725,3923,1039,-376,490
701,-1908,4176,962,-439,491
752,-1845,4524,931,-446,543
881,-1390,4851,981,-408,595
939,-1233,4794,1038,-331,586
832,-1075,4739,1034,-288,590
739,-716,4610,1011,-257,587
642,-838,4361,923,-256,556
605,-1243,4368,868,-289,555
537,-1374,4298,891,-294,608
480,-999,4175,964,-304,665
547,-582,4154,1005,-333,668
649,-754,4281,995,-367,628
739,-794,4462,1009,-381,634
782,-612,4352,1008,-364,664
836,-444,4421,985,-363,671
819,-334,4621,990,-340,653
763,-177,4510,1038,-291,631
771,61,4484,1049,-276,606
759,33,4401,1009,-260,569
701,4,4338,952,-264,549
707,109,4381,912,-272,538
684,-7,4544,889,-272,520
647,489,4770,919,-244,529
552,812,4471,913,-194,481
502,748,4445,869,-209,406
497,800,4609,812,-228,355
477,806,4448,737,-218,313
454,590,4314,670,-239,261
495,330,4207,632,-273,231
529,262,4213,620,-306,231
577,332,4271,636,-326,225
614,155,4197,654,-334,205
588,-94,4173,671,-352,231
538,437,4300,742,-373,290
497,1427,4202,808,-379,254
598,1724,4123,776,-413,82
685,1079,4383,637,-471,-81
709,770,4751,601,-488,-114
711,1420,4825,602,-439,-104
617,1701,4661,601,-382,-207
581,1296,4457,581,-360,-336
638,629,4434,468,-374,-350
696,534,4499,392,-412,-249
816,1092,4840,337,-438,-146
934,1450,4791,309,-403,-155
1068,1240,4855,216,-381,-223
1160,1095,5281,151,-338,-258
1181,1174,5219,128,-217,-282
1181,1174,5219,128,-217,-282
1144,1051,4896,79,-114,-331
1021,822,4808,20,-65,-364
916,926,4664,24,-29,-375
826,776,4366,0,-23,-399
807,612,4312,-47,-76,-390
843,782,4529,-122,-125,-356
858,932,4609,-194,-135,-351
891,904,4640,-256,-123,-381
986,995,4800,-303,-106,-409
1082,979,4825,-344,-47,-467
1035,583,4534,-392,13,-522
951,477,4371,-415,26,-532
928,447,4251,-421,18,-545
968,379,4236,-458,-1,-557
989,381,4379,-495,-17,-565
953,189,4217,-512,-2,-583
932,44,4123,-515,-15,-593
971,164,4195,-517,-33,-592
1038,68,4214,-535,-35,-604
1052,-154,4173,-560,-37,-598
1003,-64,4162,-576,-42,-563
940,142,4142,-577,-47,-561
965,-29,4022,-574,-53,-602
1070,-411,4064,-591,-78,-623
1091,-453,4429,-560,-83,-598
1119,-21,4420,-520,-30,-571
1066,-27,4222,-549,2,-602
1000,-398,4096,-603,-6,-621
977,-678,4176,-614,-38,-589
1032,-456,4214,-604,-43,-524
1079,-470,4094,-604,-50,-512
1099,-641,4323,-590,-69,-516
1117,-654,4326,-539,-37,-506
1122,-707,4204,-511,-14,-498
1169,-760,4368,-507,-25,-476
1175,-834,4417,-504,-8,-432
1137,-824,4359,-488,12,-387
1109,-774,4232,-443,29,-369
1097,-975,4049,-402,32,-371
1097,-1131,4035,-365,3,-343
1124,-925,4123,-326,-15,-300
1199,-941,4188,-300,-15,-298
1232,-1195,4263,-276,-7,-283
1243,-979,4268,-248,11,-229
1215,-891,4136,-241,37,-212
1138,-1068,4057,-230,41,-220
1103,-1294,3933,-193,39,-204
1071,-1275,4084,-140,19,-154
1028,-812,4142,-70,29,-113
1015,-746,3911,-57,30,-127
1047,-1059,4061,-94,-14,-123
1035,-1036,4232,-104,-31,-63
1007,-765,4173,-75,-18,-25
1025,-643,4202,-41,-18,-41
1035,-664,4255,-34,-17,-60
993,-741,4155,-50,-11,-50


293,483,4390,223,379,222
303,547,4553,226,344,239
298,843,4659,254,341,252
269,1192,4563,231,367,229
317,1145,4675,169,384,165
320,846,4850,134,420,129
285,761,4777,111,486,163
249,833,4602,102,527,217
209,787,4584,59,533,260
116,942,4660,12,552,319
103,1250,4545,26,584,339
190,1033,4563,31,597,307
258,645,4679,21,613,322
190,666,4589,1,655,407
126,962,4475,-41,686,476
28,838,4405,-66,701,473
-71,652,4405,-103,718,504
-117,678,4468,-69,745,554
-190,785,4348,18,781,596
-223,1108,4237,39,794,646
-179,1335,4358,-27,815,643
-208,787,4058,-44,857,594
-152,464,4048,85,820,600
-124,339,4327,212,818,641
-130,263,4337,381,882,701
-175,94,4101,538,955,782
-339,227,3997,727,978,893
-487,1651,4056,857,986,1013
-635,2696,3464,815,1010,940
-701,2427,2885,606,909,765
-724,2241,3168,418,682,657
-638,2578,3736,224,543,582
-451,2447,3905,106,542,416
-315,2078,3820,102,549,256
-218,1854,4110,90,536,169
-199,1839,4334,172,573,124
-310,1865,3996,224,658,86
-430,2560,3696,190,682,66
-559,3051,3403,148,651,-71
-616,2661,3178,12,575,-253
-627,1970,3299,-155,477,-343
-652,1808,3660,-257,422,-333
-697,2357,3906,-267,439,-328
-753,2660,3725,-291,493,-413
-753,2660,3725,-291,493,-413
-842,2387,3429,-416,507,-513
-941,2109,3388,-562,467,-553
-1016,2235,3449,-678,421,-549
-1028,2592,3398,-763,389,-585
-1042,2543,3243,-893,355,-682
-1037,2373,3209,-1008,301,-785
-1064,2201,3125,-1136,239,-866
-1057,2217,3204,-1297,159,-924
-994,2012,3127,-1439,100,-1014
-938,1460,2851,-1564,30,-1120
-924,981,3199,-1589,-96,-1208
-953,896,3664,-1386,-116,-1292
-943,632,3097,-1180,-72,-1387
-872,216,3159,-1096,-154,-1432
-862,-157,3769,-1059,-195,-1403
-987,-281,3723,-974,-124,-1308
-1164,-193,2996,-990,-84,-1181
-1311,-45,2808,-1019,-178,-1102
-1252,-10,2845,-984,-280,-1099
-1177,-383,2781,-956,-360,-1139
-1073,-677,2912,-880,-451,-1161
-997,-902,2948,-819,-505,-1146
-869,-928,2666,-894,-567,-1109
-773,-1135,3195,-903,-709,-1104
-746,-1072,3794,-787,-743,-1090
-623,-692,3759,-778,-668,-1040
-538,-923,3750,-866,-627,-1029
-690,-1468,3944,-870,-613,-990
-710,-1361,4156,-725,-565,-894
-652,-1325,3805,-615,-484,-830
-705,-1392,3441,-611,-501,-751
-707,-1128,3516,-640,-594,-663
-681,-1062,3608,-666,-671,-642
-635,-1303,3692,-653,-735,-655
-487,-1290,3726,-622,-790,-646
-342,-1348,3956,-569,-842,-663
-230,-1423,4183,-490,-857,-675
-210,-1609,4193,-520,-835,-640
-268,-1718,3991,-592,-827,-549
-292,-1683,3915,-660,-870,-446
-264,-1852,3952,-687,-922,-387
-218,-2310,4129,-626,-963,-336
-178,-2566,3946,-506,-959,-231
-76,-2193,3838,-404,-990,-92
91,-1834,3958,-337,-1013,-38
218,-1979,4307,-260,-999,-57
310,-1825,4652,-127,-930,-46
400,-1631,4640,-33,-818,-33
304,-1694,4620,-33,-739,-8
120,-1564,4444,-40,-682,43
-20,-1518,3942,-68,-661,74
-26,-1805,3635,-96,-721,86
82,-2024,3739,-61,-822,127
111,-2058,3863,0,-872,174
197,-2105,3898,87,-866,195
381,-2190,4043,229,-848,196
642,-1927,4587,388,-812,224
834,-1705,4714,445,-694,256
785,-1732,4739,454,-586,288
646,-1416,4569,484,-492,334
561,-1269,4308,508,-464,339
610,-1484,4426,497,-488,348
890,-1499,4851,506,-504,415
914,-1289,4923,518,-451,480
285,-1320,4197,417,-313,541
305,-894,3855,592,-347,495
593,-1270,4085,661,-442,406
819,-1838,4559,669,-487,445
819,-1838,4559,669,-487,445
985,-1468,4749,705,-441,585
1051,-1240,4692,756,-361,638
1036,-1594,4692,841,-292,657
984,-1931,4419,932,-225,755
865,-1340,4522,1020,-206,911
761,462,4987,1083,-168,991
747,1543,4884,1059,-71,822
701,607,4461,904,-38,558
625,-616,4573,755,-85,496
513,-582,4632,716,-87,619
360,-15,4118,767,-69,694
332,-45,3539,766,-142,679
458,-364,3681,712,-301,683
612,-570,4200,736,-399,728
851,-216,4492,820,-388,789
930,293,4650,876,-327,801
975,821,4815,902,-246,747
942,1264,4761,885,-146,631
821,828,4405,806,-79,502
634,306,4147,730,-81,476
578,489,4067,700,-125,518
523,566,3964,682,-176,523
532,618,3890,652,-244,531
553,620,3997,624,-319,530
540,735,3961,600,-372,535
617,971,4063,574,-425,519
661,1171,4289,563,-446,457
676,1177,4254,543,-421,375
688,1027,4162,506,-408,298
682,751,4066,477,-415,255
688,578,3951,467,-434,251
710,540,3947,479,-465,264
715,642,3972,496,-486,278
706,578,3783,496,-494,277
677,346,3569,492,-532,272
711,420,3969,548,-596,286
870,1088,4391,645,-582,274
969,1613,4440,679,-513,177
992,1503,4626,650,-467,42
1031,1127,4771,586,-410,-17
974,1001,4721,520,-362,10
879,1285,4647,480,-349,61
862,1535,4690,443,-353,55
930,1406,4836,400,-351,10
991,1399,5124,362,-323,-1
995,1723,4897,314,-268,-4
999,1714,5005,219,-265,-55
1086,1734,5304,126,-244,-88
1142,1882,5326,40,-181,-116
1057,1693,5239,-39,-124,-169
1028,1626,5251,-68,-77,-191
1048,1862,5079,-140,-32,-204
1018,1854,5083,-221,-15,-256
1019,1828,4993,-304,0,-302
1041,1562,4887,-404,10,-344
1061,1411,4775,-504,12,-345
1080,1476,4604,-620,1,-332
1054,1310,4471,-747,-19,-354
1125,1002,4482,-844,-47,-379
1238,1033,4724,-897,-54,-373
1283,1350,4696,-917,0,-404
1250,1062,4263,-950,56,-509
1221,476,4294,-972,45,-580
1205,480,4272,-960,63,-562
1150,628,3978,-973,78,-554
1056,636,3874,-1014,47,-571
1037,547,3747,-1069,17,-597
1052,173,3682,-1130,-19,-628
1052,173,3682,-1130,-19,-628
1095,-119,3823,-1146,-47,-625
1105,-93,3920,-1119,-36,-600
1028,57,3794,-1081,-10,-599
997,94,3694,-1066,-8,-634
952,-324,3557,-1071,-31,-668
947,-492,3539,-1078,-79,-630
986,-361,3716,-1061,-131,-592
1041,-394,3882,-990,-142,-611
1054,-648,3796,-918,-123,-635
1060,-773,3836,-859,-122,-618
1074,-748,3856,-829,-120,-575
1087,-603,3918,-807,-128,-543
1122,-525,4028,-783,-123,-549
1151,-748,3935,-753,-99,-579
1158,-1119,3807,-713,-97,-586
1211,-1328,3960,-648,-110,-550
1275,-1196,3931,-575,-96,-487


129,114,4124,220,-116,-24
73,841,4334,128,-4,89
-20,1179,4025,200,45,39
-47,996,3664,183,29,-33
-19,768,3902,120,-46,-53
-28,724,4088,103,-74,-38
-67,825,3978,103,-76,-23
-34,869,3922,116,-114,-33
-34,869,3922,116,-114,-33
117,513,4067,74,-172,-34
325,353,4716,26,-209,29
335,639,4940,48,-135,98
193,802,4583,108,-41,84
217,638,4562,163,-22,21
351,365,4825,222,-9,-6
449,324,4967,260,42,25
425,471,4904,255,113,72
402,463,4856,227,162,96
429,218,5053,226,196,118
443,103,5225,244,269,181
422,141,5264,286,381,246
349,282,5008,311,488,309
256,454,4715,280,534,357
211,314,4747,212,530,375
178,-139,4982,174,560,403
140,-249,4971,177,641,505
132,-198,4878,224,721,591
81,-246,4770,236,794,671
8,-52,4878,252,850,771
-161,193,4381,394,897,837
-262,729,3993,462,829,892
-232,1462,4311,484,701,882
-135,2006,4732,472,640,779
31,2253,5049,407,667,627
157,1957,5039,368,752,453
228,1404,5091,337,833,335
171,1144,5156,354,926,313
11,1453,5099,391,1047,349
-206,1727,4492,378,1158,366
-359,1888,4007,322,1150,352
-493,2152,3796,262,1064,305
-588,2346,3643,128,968,230
-588,2534,3664,0,849,135
-537,2582,4041,-55,751,-6
-480,2499,4139,-138,743,-133
-496,2529,4113,-232,749,-222
-598,2706,3929,-386,759,-278
-657,2842,3659,-591,734,-344
-683,2636,3698,-775,672,-444
-779,2069,3655,-933,647,-514
-904,1784,3360,-1025,629,-511
-995,1764,3255,-1100,577,-497
-1080,1728,3105,-1089,528,-535
-1054,1613,2876,-1121,464,-584
-924,1307,3097,-1206,363,-624
-832,1144,3533,-1226,318,-641
-798,1084,3583,-1164,358,-668
-803,1199,3535,-1112,402,-692
-910,1251,3262,-1077,432,-749
-1133,951,2782,-1106,416,-812
-1324,653,2441,-1150,316,-832
-1430,559,2468,-1180,170,-834
-1442,487,2712,-1136,48,-861
-1359,271,2653,-1107,-24,-881
-1190,246,2951,-1130,-126,-864
-1034,421,3331,-1151,-180,-860
-1007,223,3254,-1200,-174,-896
-1031,-137,2966,-1254,-199,-926
-1138,-354,2779,-1264,-296,-938
-1158,-227,3172,-1202,-411,-945
-1032,-124,3379,-1078,-447,-998
-959,-428,3629,-942,-459,-1079
-864,-706,3672,-767,-424,-1115
-820,-723,3367,-725,-411,-1068
-792,-441,3282,-786,-454,-1012
-762,-425,3077,-836,-513,-1034
-682,-826,3173,-861,-594,-1080
-682,-826,3173,-861,-594,-1080
-616,-1144,3514,-795,-657,-1078
-512,-1284,3448,-713,-659,-1031
-568,-1693,3069,-717,-673,-971
-691,-1839,2917,-719,-750,-879
-556,-1657,3239,-716,-825,-804
-434,-1756,3125,-712,-850,-795
-360,-2183,3231,-682,-903,-801
-237,-2387,3723,-583,-929,-731
-192,-2120,3709,-497,-873,-642
-219,-2178,3468,-367,-851,-598
-71,-2187,3530,-276,-882,-532
-70,-2396,3595,-289,-916,-453
-129,-2481,3728,-281,-945,-346
-64,-2237,3790,-231,-959,-244
46,-2008,4030,-169,-971,-196
58,-2031,4190,-107,-938,-188
106,-2278,4049,-26,-879,-183
264,-2632,4161,101,-844,-165
260,-2802,4137,236,-785,-87
297,-2252,4206,338,-746,23
319,-1895,4214,392,-714,56
337,-1911,4305,427,-715,55
404,-2011,4503,447,-708,79
465,-1963,4468,443,-671,142
464,-2049,4348,419,-642,204
438,-2254,4239,438,-618,266
439,-2509,4035,518,-598,332
485,-2702,4015,631,-613,419
591,-2307,4405,767,-623,531
647,-1507,4572,876,-566,592
633,-1115,4662,944,-496,554
586,-1319,4454,1022,-432,487
593,-1494,4269,1054,-421,498
637,-1402,4419,1051,-447,566
702,-993,4591,1036,-453,643
729,-638,4591,971,-437,686
651,-643,4517,885,-430,694
588,-625,4539,862,-443,706
645,-488,4492,862,-445,718
680,-575,4488,864,-447,718
631,-414,4515,917,-436,727
673,156,4609,993,-411,704
761,297,4564,977,-375,634
736,60,4611,899,-366,595
697,-6,4492,831,-353,619
619,75,4407,766,-369,654
623,119,4293,748,-391,659
673,-31,4263,710,-424,671
722,84,4295,683,-451,711
718,204,4101,645,-468,724
726,190,4145,631,-508,703
824,277,4346,671,-533,671
929,283,4591,721,-525,630
898,140,4516,784,-463,602
841,318,4247,828,-418,609
795,601,4143,826,-419,592
790,344,4170,812,-437,555
810,332,4307,833,-457,578
768,572,4156,846,-448,610
688,660,3969,866,-488,603
648,643,3963,877,-556,587
618,491,3833,883,-612,587
602,859,4112,899,-686,617
675,2222,4458,895,-704,591
850,2748,4586,793,-693,396
1153,1965,4985,622,-692,182
1287,1102,5357,485,-629,134
1170,1237,5307,488,-512,195
1052,1641,4986,550,-404,193
1052,1641,4986,550,-404,193
1086,1572,4853,580,-365,121
1104,1138,4863,564,-349,84
1052,1260,4834,566,-334,127
1063,1844,4828,485,-318,154
1119,2014,4968,373,-297,92
1182,1911,5200,289,-251,11
1178,1879,5094,205,-170,-38
1208,1950,5027,109,-112,-84
1124,1815,5040,24,-57,-149
1046,1803,4718,5,-4,-210
1118,1693,4765,-57,-11,-253
1191,1679,4962,-160,-8,-254
1191,1893,4932,-260,23,-250
1170,1951,4782,-352,56,-293
1117,1786,4644,-448,70,-358
1083,1592,4544,-521,76,-411
1076,1555,4364,-584,73,-452
1085,1482,4254,-661,54,-509
1103,1152,4261,-728,37,-576
1101,887,4239,-763,35,-595
1120,1027,4129,-786,33,-589
1160,774,3942,-829,18,-622
1133,359,4006,-871,-13,-625
1120,532,3992,-881,-23,-583
1106,656,3925,-899,-27,-596
1067,487,3909,-898,-39,-650
1098,335,3930,-879,-56,-683
1124,346,3968,-859,-61,-694
1145,303,3915,-864,-62,-706
1109,137,3959,-881,-72,-704
1053,269,3903,-884,-71,-682
1028,306,3741,-915,-82,-686
1029,32,3856,-938,-116,-706
1037,-349,4166,-850,-108,-726
1029,-463,3919,-738,-36,-691
1058,-238,3701,-661,-29,-646
1105,-32,3960,-630,-57,-651
1176,-59,4006,-623,-33,-681
1160,-416,3951,-610,-9,-703
1074,-565,3732,-595,0,-666
1082,-430,3698,-584,-33,-620
1101,-403,3869,-577,-69,-610
1109,-187,3970,-559,-80,-609
1112,-372,3955,-546,-82,-647
1077,-736,3879,-535,-89,-645
1093,-672,3856,-504,-111,-600
1159,-507,3891,-498,-136,-580
1261,-831,4010,-518,-159,-582
1272,-1012,4271,-523,-155,-534
1241,-858,4153,-477,-109,-484
1196,-1001,3968,-435,-93,-471
1172,-1007,4012,-405,-109,-441


-109,1082,4422,-187,927,764
-309,1120,4076,-229,857,739
-350,1260,4269,-302,807,719
-326,1352,4598,-307,809,678
-331,1492,4659,-39,835,584
-301,1542,4810,-16,902,540
-215,1567,4797,-39,1000,528
-215,1306,4497,-77,1061,546
-307,1117,4480,-156,1072,610
-504,1247,4282,-164,1105,683
-715,1530,3719,-118,1109,699
-883,1577,3238,-151,1023,647
-889,1345,3277,-241,872,578
-759,1475,3735,-217,732,513
-707,1597,4069,-179,696,414
-750,1628,4104,-151,721,313
-776,1744,4094,-181,756,238
-725,1893,4179,-278,788,181
-667,1831,4150,-344,826,120
-756,1645,4113,-398,852,83
-836,1879,4051,-347,857,57
-963,2200,3701,-275,853,-24
-1099,2242,3290,-293,790,-157
-1138,2056,3257,-412,669,-271
-1080,1955,3327,-575,552,-336
-1062,1706,3599,-765,456,-386
-1154,1392,3824,-814,425,-427
-1150,1570,3739,-798,439,-430
-1081,1861,3793,-786,437,-482
-1041,1878,3716,-858,450,-580
-1009,1672,3940,-944,449,-664
-1044,1411,3951,-939,483,-729
-1095,1285,3661,-956,525,-764
-1184,1074,3364,-968,522,-809
-1282,877,3129,-984,479,-852
-1342,667,2982,-976,400,-892
-1316,550,3071,-983,294,-908
-1271,720,3317,-989,213,-917
-1264,942,3231,-1025,181,-958
-1222,615,3076,-1137,126,-1033
-1194,-174,3305,-1268,44,-1060
-1194,-174,3305,-1268,44,-1060
-1286,-444,3654,-1286,16,-993
