acc_X,acc_Y,acc_Z,gyro_X,gyro_Y,gyro_Z
196,917,5082,49,634,-120
122,751,5033,-31,653,-97
92,759,4949,-105,675,-30
17,817,4803,-175,704,23
-95,941,4629,-230,716,59
-159,1161,4497,-287,699,78
-163,1351,4445,-352,668,60
-168,1420,4501,-417,639,2
-191,1428,4653,-503,618,-62
-167,1438,4801,-576,618,-133
-105,1384,4931,-675,645,-209
-107,1267,4865,-707,695,-291
-138,1130,4652,-756,749,-347
-221,1067,4503,-885,788,-352
-304,1134,4414,-1012,816,-341
-330,1188,4275,-1056,835,-365
-354,1175,4076,-1082,850,-425
-433,1057,3885,-1090,857,-506
-545,952,3625,-1072,847,-583
-633,901,3465,-1135,835,-629
-669,864,3332,-1177,826,-688
-667,729,3192,-1183,813,-775
-688,540,3070,-1137,783,-866
-791,235,2944,-1100,751,-925
-811,150,2736,-1290,742,-911
-904,24,2474,-1386,720,-939
-1038,-274,1935,-1280,642,-1008
-1079,-753,1623,-1284,502,-1046
-1124,-1215,1466,-1230,312,-1041
-1157,-1467,1445,-1190,88,-958
-1106,-1578,1539,-1181,-112,-843
-1096,-1665,1644,-1064,-284,-779
-1067,-1784,1607,-893,-415,-752
-948,-2025,1544,-756,-537,-735
-903,-2310,1544,-632,-681,-705
-876,-2537,1654,-548,-829,-622
-802,-2660,1779,-422,-957,-512
-711,-2689,1839,-236,-1058,-417
-583,-2695,1897,-90,-1159,-326
-454,-2779,2066,17,-1279,-233
-317,-2854,2168,176,-1399,-127
-204,-2829,2259,304,-1519,2
-90,-2755,2402,362,-1633,135
0,-2684,2531,423,-1733,243
71,-2608,2788,507,-1833,341
215,-2399,3209,668,-1925,427
401,-2022,3703,867,-1972,497
612,-1561,4229,1062,-1968,524
876,-1095,4696,1220,-1910,502
1097,-870,5098,1295,-1814,440
1236,-882,5678,1275,-1726,418
1373,-747,6458,1203,-1588,469
1386,-439,7255,1033,-1305,554
1176,-15,6967,1030,-985,607
1018,451,6282,1059,-830,631
990,793,6084,994,-837,605
990,793,6084,994,-837,605
1008,1082,6435,813,-905,569
1129,1393,6977,646,-954,537
1388,1688,7761,463,-928,478
1608,1821,8660,306,-737,365
1650,1820,9132,256,-380,219
1480,1653,8993,305,71,77
1155,1503,7981,379,470,-9
814,1491,6862,346,669,-24
606,1606,6053,242,682,-18
517,1635,5543,93,592,-52
474,1515,5421,-83,469,-109
544,1389,5536,-223,377,-159
640,1268,5676,-348,371,-207
719,1160,5693,-459,454,-260
752,1102,5573,-491,572,-332
774,1071,5387,-438,697,-418
826,950,5102,-400,833,-530
781,748,4843,-453,960,-624
692,619,4584,-540,1071,-677
580,588,4251,-655,1171,-701
474,585,3901,-789,1249,-723
357,507,3495,-876,1285,-781
259,384,3097,-926,1269,-856
165,275,2775,-975,1205,-923
111,166,2653,-1043,1119,-981
77,59,2633,-1019,1028,-1059
49,-70,2511,-914,946,-1158
18,-314,2360,-824,860,-1251
-113,-526,2261,-774,767,-1294
-167,-547,2126,-754,679,-1288
-174,-384,1847,-802,601,-1293
-276,-379,1471,-822,470,-1381
-338,-504,1397,-907,283,-1463
-232,-561,1532,-1130,129,-1501
-181,-748,1483,-1230,5,-1600
-230,-1115,1166,-1160,-144,-1693
-209,-1492,988,-1108,-334,-1727
-211,-1766,1011,-1039,-572,-1725
-150,-1943,1316,-974,-827,-1676
26,-2010,1697,-854,-1050,-1624
285,-2119,2047,-766,-1220,-1576
488,-2302,2379,-619,-1331,-1549
635,-2474,2769,-490,-1397,-1487
738,-2504,3052,-339,-1429,-1384
963,-2491,3407,219,-1543,-1416
1141,-2568,2981,693,-1726,-1453
1041,-2872,3774,-111,-1614,-993
1057,-2791,3841,-161,-1470,-777
985,-2643,3687,-14,-1397,-650
999,-2345,3563,206,-1382,-557
1098,-2096,3520,370,-1404,-526
1336,-2138,3558,437,-1434,-544
1564,-2376,3833,474,-1475,-546
1666,-2608,4281,489,-1494,-483
1818,-2701,4793,510,-1456,-362
1920,-2654,5212,606,-1364,-223
1950,-2454,5527,703,-1235,-75
2005,-2231,5529,783,-1066,39
1938,-2127,5137,827,-900,110
1839,-2099,4668,841,-835,177
1847,-2042,4617,784,-869,261
1888,-2135,4801,778,-881,334
1888,-2137,4845,801,-868,435
2023,-2126,5764,807,-765,544
1684,-2477,4274,1261,-651,618
1824,-2185,4153,1394,-819,839
1943,-1617,4570,1351,-913,1043
1998,-1246,4964,1256,-900,1143
2001,-948,5169,1259,-820,1184
2001,-948,5169,1259,-820,1184
2002,-606,5184,1319,-714,1190
1997,-407,5191,1359,-618,1154
1980,-148,5348,1369,-515,1117
1946,33,5240,1362,-376,1056
1908,23,4928,1354,-281,969
1870,-75,4729,1324,-255,910
1872,-200,4762,1254,-273,909
1946,-295,4984,1190,-304,958
2055,-315,5175,1149,-302,1040
2047,-263,5209,1094,-246,1147
1969,-121,5134,1032,-166,1264
1943,233,5038,1036,-95,1382
1931,857,4828,1173,-31,1446
1894,1400,4559,1225,30,1399
1835,1720,4487,1103,83,1281
1797,1917,4382,1004,128,1100
1782,1889,4335,863,174,880
1711,1631,4358,723,225,664
1618,1306,4307,613,287,500
1552,1001,4118,524,341,411
1483,721,3856,458,365,367
1408,514,3663,425,328,372
1409,447,3659,466,247,396
1412,431,3561,638,159,393
1367,452,3410,766,77,401
1317,566,3329,736,7,442
1321,760,3353,584,-28,481
1363,930,3421,463,-43,444
1437,979,3476,432,-60,332
1534,879,3547,422,-79,195
1635,658,3692,392,-95,74
1690,407,3830,364,-106,-12
1696,200,3884,321,-104,-44
1708,48,3868,307,-108,-41
1764,-11,3813,267,-118,-16
1805,-72,3865,219,-139,10
1706,-95,3942,189,-167,58
1622,-90,4099,-5,-151,164
1662,43,4171,-74,-105,229
1655,193,4114,-10,-74,209
1624,281,4104,-1,-56,169
1634,319,4149,17,-49,120
1650,276,4178,51,-43,57
1659,193,4153,101,-28,0
1656,103,4156,156,-30,-35
1646,24,4166,195,-41,-41
1643,-30,4158,211,-46,-20
1598,-30,4111,205,-40,20
1552,22,4101,193,-35,70
1543,144,4073,213,-34,105
1561,264,4030,213,-33,119
1561,335,4023,177,-36,118
1576,384,4008,159,-45,106
1598,384,3999,136,-61,84
1611,361,4047,118,-82,60
1641,334,4061,117,-92,39
1683,311,4060,132,-89,16
1710,282,4106,138,-89,-1
1735,269,4160,132,-80,-11
1719,261,4180,130,-59,-17
1682,259,4137,140,-31,-21
1664,252,4078,133,-12,-21
1637,254,3986,97,-3,-13
1604,260,3943,-11,3,13
1623,267,3933,-66,-1,24
1663,259,3922,-46,-15,3
1669,206,3948,-29,-33,-18
1692,169,3976,-23,-44,-25
1692,169,3976,-23,-44,-25
1704,144,4045,-14,-50,-22
1697,133,4097,-7,-47,-11
1675,131,4112,-12,-28,3
1616,166,4066,-7,-5,18


-329,1358,4843,-553,256,-46
-283,1444,4891,-580,286,-112
-303,1423,4956,-650,322,-176
-386,1387,4931,-710,372,-228
-495,1379,4706,-729,423,-286
-607,1364,4390,-727,435,-351
-612,1277,4094,-736,398,-418
-569,1015,3957,-785,323,-473
-535,730,3993,-859,240,-484
-533,595,4053,-906,187,-465
-521,672,3998,-906,165,-443
-454,700,3857,-895,153,-469
-445,526,3820,-903,133,-524
-486,278,3769,-892,123,-560
-549,105,3667,-832,123,-580
-605,123,3570,-747,112,-580
-622,204,3400,-681,97,-600
-649,102,3196,-656,60,-644
-690,-45,3103,-670,-5,-666
-647,-200,3123,-681,-85,-674
-618,-399,3194,-668,-158,-676
-639,-506,3251,-658,-214,-648
-638,-485,3188,-646,-250,-611
-663,-459,3037,-622,-292,-604
-681,-527,2850,-608,-352,-623
-590,-783,2729,-610,-438,-653
-471,-1208,2875,-604,-541,-661
-393,-1472,3218,-589,-613,-614
-381,-1494,3316,-526,-617,-550
-343,-1555,3143,-387,-620,-519
-285,-1655,3114,-274,-674,-487
-170,-1645,3343,-204,-745,-424
-12,-1624,3638,-141,-786,-369
22,-1672,3811,-113,-786,-324
10,-1803,3829,-91,-773,-277
58,-1991,3780,-26,-782,-228
101,-2079,3925,18,-813,-139
152,-1974,4008,76,-818,-41
169,-1933,3838,130,-801,13
128,-1987,3806,214,-813,40
178,-1956,3927,331,-844,84
312,-1842,4201,411,-867,145
419,-1636,4531,469,-867,214
506,-1377,4673,510,-828,267
568,-1345,4769,513,-782,287
604,-1415,4857,510,-744,323
607,-1363,4877,495,-702,399
559,-1258,4739,523,-672,475
547,-1057,4886,560,-657,543
592,-558,5123,617,-631,599
743,95,5499,628,-555,600
691,265,5184,684,-456,500
669,2,4707,660,-443,420
712,-482,4797,521,-502,430
668,-590,5185,390,-526,552
659,-93,5276,385,-472,679
668,471,5281,448,-405,701
663,822,5361,468,-341,647
645,983,5289,442,-263,556
550,925,5149,399,-203,454
550,925,5149,399,-203,454
511,927,5163,363,-184,395
562,1085,5347,295,-157,360
512,1094,5258,232,-94,311
389,1093,4852,174,-56,275
353,1191,4843,153,-91,243
419,1261,5049,187,-111,185
482,1460,5203,225,-97,124
565,1768,5359,219,-69,54
655,1927,5503,158,-16,-39
687,1909,5628,62,48,-138
678,1906,5679,-46,124,-204
634,1954,5469,-140,210,-263
536,1865,5049,-239,263,-337
428,1681,4644,-362,261,-398
333,1504,4309,-498,217,-438
264,1311,4035,-633,149,-485
285,1038,3893,-718,70,-543
353,788,3962,-788,-3,-578
449,564,4110,-820,-49,-599
486,397,4142,-805,-46,-611
507,359,4036,-776,-15,-624
548,472,3949,-732,3,-659
636,422,3884,-677,25,-752
619,-1,3861,-647,57,-856
529,-150,3629,-689,99,-880
396,-148,3323,-682,87,-905
340,-293,3215,-649,29,-940
425,-450,3133,-652,-39,-954
580,-692,3141,-677,-125,-958
597,-904,3341,-759,-203,-920
527,-925,3455,-781,-227,-864
471,-919,3373,-705,-227,-846
477,-959,3124,-629,-247,-848
480,-1132,2986,-621,-313,-845
446,-1264,3130,-632,-398,-811
429,-1150,3187,-610,-446,-768
501,-1192,3058,-550,-476,-787
519,-1429,3008,-505,-530,-810
526,-1576,3087,-483,-601,-781
664,-1688,3179,-416,-661,-746
776,-1856,3267,-316,-704,-717
855,-1965,3391,-241,-734,-657
949,-1854,3595,-219,-760,-563
1038,-1713,3807,-196,-771,-496
1031,-1670,3984,-115,-772,-472
1068,-1692,3959,-53,-753,-454
1147,-1856,3951,-31,-753,-430
1198,-2029,4105,-9,-766,-379
1209,-2077,4125,79,-755,-312
1196,-2080,3966,171,-731,-252
1203,-2173,3786,244,-724,-199
1244,-2279,3678,306,-746,-128
1281,-2377,3692,372,-780,-38
1273,-2296,3744,459,-805,70
1315,-1978,3864,575,-828,161
1513,-1711,4185,702,-860,203
1720,-1707,4664,744,-862,225
1789,-1825,4993,751,-793,271
1726,-1864,4823,759,-672,356
1626,-1835,4351,770,-587,444
1609,-1763,4104,808,-592,524
1672,-1574,4235,843,-638,609
1782,-1347,4525,881,-651,677
1848,-1155,4668,934,-607,723
1850,-957,4459,960,-541,759
1857,-870,4315,951,-512,771
1904,-856,4391,1025,-522,786
2065,-375,4954,1041,-545,852
2164,-99,5292,1083,-423,842
2164,-99,5292,1083,-423,842
2029,-22,4652,1278,-404,816
2161,203,5702,1153,-374,877
1986,344,5395,1122,-135,865
1715,480,4220,1099,-3,842
1615,640,3932,998,-91,833
1729,889,4419,916,-237,817
1913,1017,5047,839,-277,778
1974,1072,5312,758,-203,738
1950,1123,5248,672,-86,709
1910,1164,5082,586,19,680
1881,1245,4975,501,90,654
1834,1448,4885,463,140,620
1726,1659,4650,448,190,551
1653,1603,4345,394,223,449
1604,1335,4116,325,213,359
1498,1148,4017,268,176,323
1475,1125,4010,209,142,331
1530,1110,3939,205,131,315
1535,1045,3815,224,127,282
1538,995,3764,197,114,272
1566,954,3836,113,101,279
1571,914,3971,24,107,288
1571,956,3938,5,130,276
1529,970,3885,33,143,226
1493,916,3869,119,145,144
1488,824,3850,212,131,58
1533,658,3884,269,112,-14
1504,499,3832,320,104,-71
1431,422,3713,320,84,-87
1421,391,3698,221,45,-71
1503,345,3864,85,11,-51
1603,298,4072,38,-9,-59
1690,222,4279,14,-12,-67
1719,151,4434,-13,11,-64
1663,149,4480,-61,60,-37
1578,233,4373,-84,123,-14
1466,314,4114,-72,168,-23
1376,313,3894,-70,168,-58
1313,225,3817,-82,127,-89
1291,136,3855,-73,70,-102
1313,75,3935,-55,21,-101
1350,42,4018,-38,-6,-92
1359,26,4078,-25,-12,-77
1392,52,4129,-9,-12,-57
1387,98,4157,-11,-4,-35
1376,132,4144,-22,19,-17
1356,163,4040,0,40,-16
1320,202,3967,9,40,-16
1309,275,3919,14,24,-18
1342,326,3893,19,6,-37
1384,267,3918,17,-18,-69
1421,160,3983,5,-41,-89
1480,69,4083,0,-48,-93
1506,3,4143,19,-44,-82
1494,13,4147,24,-32,-52
1467,43,4110,15,-17,-22
1437,109,4057,27,-13,-4
1437,184,4011,39,-20,3
1460,206,4039,45,-36,-9
1530,155,4144,69,-53,-27
1570,112,4250,82,-60,-23
1532,112,4347,58,-37,4
1476,150,4340,56,2,24
1424,203,4200,86,41,26
1412,261,4103,101,54,22
1404,280,4078,111,50,9
1396,266,4016,118,45,-8
1394,208,3968,104,36,-14
1367,152,3936,96,20,-13


-396,1177,4530,-396,293,-148
-513,1140,4280,-500,271,-207
-539,1154,4223,-587,217,-257
-525,1220,4244,-644,168,-317
-525,1220,4244,-644,168,-317
-426,1181,4151,-730,149,-398
-338,829,4010,-819,136,-492
-392,382,4011,-935,120,-525
-477,258,4037,-994,110,-485
-438,554,4061,-1007,105,-430
-445,633,3824,-993,122,-474
-539,194,3436,-1029,118,-563
-639,-200,3249,-1008,53,-594
-645,-276,3166,-923,-29,-584
-594,-261,3030,-868,-108,-582
-521,-306,2943,-847,-191,-598
-400,-439,2885,-845,-273,-628
-294,-835,2868,-857,-349,-660
-253,-1224,2969,-865,-419,-639
-228,-1330,3045,-824,-460,-574
-209,-1284,3048,-713,-480,-538
-209,-1143,2902,-591,-478,-540
-240,-1215,2713,-489,-494,-588
-258,-1523,2661,-405,-545,-629
-260,-1873,2536,-322,-611,-617
-240,-2112,2522,-320,-706,-531
-164,-2313,2516,-293,-834,-416
-67,-2405,2517,-261,-993,-271
132,-2391,2821,-261,-1167,-120
379,-2362,3340,-221,-1285,-14
523,-2282,3884,-148,-1305,53
629,-2098,4273,-14,-1242,83
720,-1958,4400,158,-1124,61
712,-2016,4361,289,-1014,28
652,-2182,4250,392,-947,43
557,-2360,4142,512,-915,110
521,-2230,4079,586,-931,250
649,-1794,4276,613,-981,391
729,-1505,4500,641,-1004,452
857,-1312,4914,615,-986,486
905,-1250,4965,650,-917,498
960,-1164,4875,709,-895,528
1089,-1125,5045,692,-897,568
1126,-1039,5337,623,-864,624
1147,-815,5518,604,-786,674
1155,-585,5508,630,-684,688
1123,-236,5397,658,-602,688
1125,57,5350,655,-553,653
1128,142,5636,612,-494,591
1147,257,5818,633,-396,540
1198,435,6172,693,-275,503
1131,721,6220,793,-115,477
999,1258,5902,825,12,453
896,1747,5701,747,65,395
768,2007,5609,601,84,297
614,2103,5473,427,94,190
561,2124,5400,269,86,95
590,2146,5496,137,71,18
642,2205,5634,26,84,-48
669,2209,5559,-59,140,-133
682,2083,5259,-150,208,-232
675,1829,5005,-257,248,-315
635,1697,4877,-334,254,-368
606,1766,4674,-406,263,-410
613,1783,4354,-500,260,-484
695,1409,4168,-595,222,-603
746,857,4232,-668,175,-685
760,661,4311,-698,163,-691
793,729,4141,-688,195,-711
810,663,3815,-680,229,-792
774,466,3606,-721,223,-872
775,348,3525,-773,196,-926
821,145,3434,-823,173,-988
785,-143,3335,-857,143,-1047
730,-289,3272,-857,109,-1063
730,-289,3272,-857,109,-1063
677,-191,3084,-836,88,-1081
620,-246,2923,-804,55,-1159
633,-573,2893,-752,3,-1242
747,-643,2712,-777,-33,-1271
763,-966,2456,-760,-112,-1331
713,-1491,2583,-743,-222,-1332
727,-1767,2730,-743,-295,-1240
714,-1810,2755,-736,-348,-1119
676,-1707,2747,-690,-402,-1022
652,-1693,2587,-583,-458,-994
635,-1868,2503,-478,-541,-989
663,-1969,2556,-397,-648,-946
825,-2091,2716,-300,-761,-898
1015,-2279,3044,-198,-865,-831
1157,-2352,3345,-108,-925,-728
1230,-2276,3526,-32,-946,-612
1344,-2135,3709,91,-957,-525
1499,-2068,3677,229,-944,-479
1590,-2298,3586,304,-937,-442
1566,-2387,3666,348,-953,-348
1625,-2168,3749,445,-953,-253
1726,-1996,3884,548,-950,-213
1803,-1974,4124,627,-930,-186
1832,-2080,4103,706,-885,-149
1832,-2201,3982,739,-862,-80
1859,-2219,4011,793,-880,26
1940,-1903,4212,878,-906,149
2057,-1761,4357,988,-875,195
2050,-2062,4021,1167,-881,235
2128,-2032,4127,1203,-956,385
2196,-1729,4543,1172,-999,551
2291,-1357,4887,1182,-936,657
2328,-1091,5117,1244,-813,697
2402,-743,5232,1302,-682,730
2421,-497,5102,1291,-546,737
2271,-516,4884,1219,-449,733
2175,-542,4636,1172,-402,757
2108,-508,4447,1152,-385,792
2053,-446,4509,1155,-386,830
2063,-230,4703,1192,-375,889
2159,160,4740,1217,-324,944
2185,353,4579,1179,-261,955
2097,388,4340,1093,-219,962
2028,485,4242,1013,-210,987
2050,701,4521,995,-225,1007
2134,1131,4889,1030,-200,1007
2199,1591,4988,1017,-103,959
2170,1702,4826,923,10,850
1989,1592,4571,810,89,745
1859,1518,4264,733,126,679
1804,1438,4024,627,119,643
1732,1469,4006,516,82,632
1740,1749,4137,465,38,613
1846,1924,4332,401,17,550
1916,1901,4423,308,40,469
1942,1719,4360,198,84,401
1940,1492,4205,91,117,372
1913,1373,4061,13,127,380
1819,1397,3892,-47,132,391
1762,1527,3754,-56,121,372
1808,1631,3756,-44,94,302
1780,1543,3718,-21,76,189
1752,1350,3635,-52,56,99
1773,1106,3699,-120,18,35
1773,847,3883,-143,-20,-5
1809,646,4042,-129,-42,-19
1837,574,4115,-105,-46,-24
1818,489,4169,-133,-25,-19
1818,489,4169,-133,-25,-19
1788,460,4184,-158,17,-9
1792,458,3994,-100,59,-37
1821,292,3805,-24,65,-88
1841,50,3779,61,39,-117
1841,-35,3745,118,21,-96
1813,-14,3712,99,16,-53
1825,1,3790,107,5,-30
1840,3,3873,165,0,-29
1806,18,3853,187,15,-16
1804,21,3787,108,37,17
1813,32,3802,7,42,58
1788,73,3825,-28,39,85
1738,184,3833,-14,37,94
1666,423,3744,35,26,84
1678,526,3733,46,-6,32
1787,417,3805,43,-47,-41
1852,176,3897,28,-80,-90
1843,-36,3987,-4,-93,-86
1797,-139,4013,1,-83,-48
1802,-88,4033,16,-63,10
1862,38,4136,41,-39,56
1850,166,4233,70,-6,73
1817,287,4182,91,47,74
1782,375,4032,78,88,61
1664,383,3910,85,96,37
1552,383,3762,93,83,14
1554,392,3668,59,57,2
1637,364,3656,50,8,-25
1727,257,3787,5,-48,-38
1809,155,4007,-48,-83,-22
1843,116,4121,-57,-80,3
1845,157,4125,-51,-54,31
1863,236,4111,-36,-29,46
1847,283,4083,-11,-2,40
1785,276,4036,5,23,28
1734,320,3963,29,34,26
1743,362,3892,62,28,17
1767,306,3879,73,7,0
1759,219,3905,74,-12,0
1753,189,3917,65,-22,16
1762,190,3917,68,-27,32
1787,218,3923,97,-34,42
1770,274,3946,111,-41,56
1754,370,3949,89,-34,73
1753,477,3966,94,-23,62
1747,544,3932,126,-11,22
1727,528,3906,131,-2,-21
1706,484,3878,128,4,-54
1673,414,3806,125,4,-80
1683,319,3722,132,-11,-91
1759,265,3712,133,-44,-83
1765,145,3789,138,-76,-68
1791,168,3818,135,-97,-17
1846,250,3871,128,-109,31
1860,334,3896,159,-112,46


-159,1243,4983,-318,450,-46
-190,1524,4923,-378,478,-95
-216,1628,4943,-425,487,-185
-317,1584,4829,-505,504,-274
-483,1455,4548,-631,514,-333
-581,1397,4261,-745,479,-367
-590,1371,4065,-835,413,-405
-563,1193,3986,-942,346,-462
-553,883,4004,-1028,299,-516
-564,665,3982,-1051,280,-546
-569,555,3761,-1063,282,-558
-602,425,3455,-1112,270,-573
-649,367,3328,-1134,218,-584
-580,372,3339,-1142,165,-600
-515,265,3307,-1134,128,-645
-509,6,3142,-1114,102,-692
-542,-317,2914,-1115,66,-711
-590,-545,2751,-1104,-1,-693
-577,-489,2621,-1045,-96,-661
-507,-369,2743,-921,-216,-676
-507,-369,2743,-921,-216,-676
-384,-540,2911,-764,-284,-740
-319,-908,2805,-703,-304,-782
-308,-1182,2593,-698,-352,-763
-307,-1310,2534,-698,-428,-715
-370,-1444,2420,-657,-496,-682
-386,-1567,2282,-550,-580,-667
-319,-1774,2172,-447,-673,-663
-320,-2071,2186,-384,-776,-635
-278,-2156,2175,-313,-870,-568
-162,-2272,2147,-251,-960,-522
-42,-2553,2431,-184,-1062,-487
124,-2635,2844,-53,-1125,-419
312,-2595,3063,41,-1126,-339
364,-2707,3224,108,-1123,-264
452,-2343,3572,127,-1135,-142
566,-2083,3592,210,-1122,-110
600,-2367,3167,256,-1151,-128
690,-2684,3269,217,-1282,-90
1016,-2845,3932,207,-1409,-4
1390,-3020,4614,289,-1446,106
1618,-2864,5230,371,-1396,275
1763,-2400,5372,448,-1254,423
1751,-2080,5180,526,-1102,478
1648,-2129,4995,610,-985,475
1535,-2219,5181,731,-885,490
1537,-1930,5224,930,-785,540
1571,-1473,5256,1007,-718,612
1537,-1062,5393,950,-672,687
1455,-637,5582,909,-628,725
1418,-279,5783,902,-576,730
1380,144,6037,888,-515,736
1364,632,6463,854,-435,731
1341,1065,6619,809,-279,698
1163,1297,6101,748,-124,627
925,1382,5807,670,-68,557
778,1553,5830,621,-52,495
727,1812,5895,621,-39,423
767,2065,6032,555,-9,349
740,2230,6022,446,45,261
702,2318,5895,347,96,162
680,2278,5739,225,135,69
688,2138,5621,88,158,-8
724,2020,5498,-25,177,-70
782,1990,5319,-143,200,-126
908,1831,5192,-272,213,-199
963,1474,5198,-372,227,-271
970,1267,5173,-418,259,-308
984,1246,4937,-448,315,-342
961,1065,4614,-491,353,-405
938,903,4486,-526,348,-456
956,806,4468,-559,346,-496
922,656,4398,-583,368,-545
857,567,4197,-599,394,-590
797,549,4061,-612,402,-638
726,470,3939,-634,407,-702
639,259,3809,-636,410,-773
592,46,3709,-612,402,-815
566,-25,3526,-597,396,-832
513,-105,3406,-623,376,-844
454,-104,3255,-623,351,-857
382,-163,2983,-633,314,-884
288,-355,2756,-681,244,-907
248,-538,2691,-752,146,-903
291,-739,2741,-778,53,-904
311,-965,2757,-736,-15,-906
317,-1082,2788,-699,-65,-885
369,-1132,2817,-626,-113,-869
406,-1148,2877,-570,-160,-851
406,-1148,2877,-570,-160,-851
439,-1194,2881,-555,-187,-831
391,-1267,2646,-533,-193,-833
327,-1448,2336,-517,-229,-839
333,-1540,2058,-504,-324,-826
409,-1626,2035,-467,-479,-824
546,-1823,2306,-454,-633,-826
669,-2098,2732,-437,-729,-817
740,-2256,2954,-326,-762,-775
812,-2102,3066,-225,-774,-698
879,-1934,3022,-84,-791,-652
1001,-1942,2976,38,-837,-613
1115,-1973,3065,75,-901,-549
1097,-1852,3195,75,-947,-474
1149,-1685,3366,114,-978,-431
1277,-1732,3543,202,-993,-430
1311,-1849,3538,268,-981,-413
1267,-1923,3217,322,-972,-372
1294,-2006,3093,317,-1018,-320
1469,-2220,3437,352,-1101,-266
1707,-2363,3938,459,-1135,-185
1841,-2284,4264,566,-1096,-67
1886,-2050,4211,640,-1020,45
1868,-1823,4140,723,-978,124
1874,-1594,4007,820,-954,164
1981,-1719,3780,866,-948,161
2065,-2014,3894,844,-988,198
2252,-2061,4613,863,-1038,306
2456,-1785,5178,957,-985,416
2491,-1315,5132,959,-857,493
2554,-873,5165,860,-761,517
2595,-1174,5523,812,-623,450
2330,-2071,4148,1172,-591,437
2581,-1761,4965,1176,-704,677
2631,-1149,5305,1187,-610,836
2558,-374,5116,1259,-470,898
2546,303,4916,1289,-357,848
2426,282,4794,1253,-266,709
2290,5,4720,1217,-214,633
2230,-104,4604,1187,-188,641
2188,1,4632,1138,-172,696
2236,431,4789,1120,-161,747
2324,898,4949,1108,-140,740
2343,1087,5129,1000,-99,693
2361,1078,5056,878,-47,652
2288,809,4828,744,-2,630
2178,671,4720,642,21,664
2196,857,4663,626,45,697
2191,1106,4689,605,72,700
2151,1456,4893,544,114,689
2066,1742,4884,491,202,626
1880,1774,4457,442,298,520
1706,1757,4043,377,318,436
1691,1766,3889,295,276,367
1690,1520,3866,188,221,303
1674,1204,3774,79,169,292
1614,1076,3680,-17,119,324
1556,1137,3589,-67,70,347
1640,1298,3665,-107,19,335
1692,1193,3891,-134,-3,271
1674,1032,3882,-112,22,206
1605,994,3581,-83,50,150
1581,863,3404,-81,37,86
1619,643,3440,-107,-7,35
1655,424,3655,-97,-45,2
1709,325,3720,-53,-46,0
1709,249,3647,-48,-39,1
1657,204,3593,-31,-54,7
1705,382,3713,-72,-76,27
1705,379,3724,-20,-90,-24
1789,185,3881,58,-112,-77
1789,185,3881,58,-112,-77
1888,56,4092,61,-103,-87
1910,70,4202,27,-66,-63
1924,181,4210,47,-26,-47
1924,209,4105,51,9,-54
1854,136,4017,39,16,-60
1793,138,3997,33,6,-54
1764,157,3963,25,0,-52
1767,171,3957,8,-12,-49
1778,160,4006,-7,-23,-48
1765,109,4016,1,-28,-49
1765,121,4084,26,-29,-41
1798,208,4081,72,-12,-44
1807,190,4056,77,3,-56
1842,110,4026,85,10,-61
1842,73,4074,52,15,-39
1819,134,4016,29,26,-12
1796,177,3894,0,26,0
1758,213,3820,-29,10,2
1767,207,3794,-53,-9,-8
1764,122,3924,-56,-29,-26
1794,95,4047,-25,-22,-34
1752,96,3913,31,1,-52
1684,54,3802,69,-2,-61
1703,79,3769,50,-22,-49
1742,75,3885,39,-51,-42
1818,108,4018,68,-63,-42
1882,86,4055,85,-51,-47
1892,39,4045,67,-31,-41
1890,24,4104,82,-20,-30
1885,141,4157,119,-11,-19
1877,207,4175,111,16,-18
1821,237,4038,103,47,-26
1748,265,3820,82,56,-39
1721,235,3719,79,25,-62
1725,140,3758,54,-8,-81
1804,44,3875,41,-34,-79
1864,-5,4021,46,-47,-56
1896,64,4167,54,-37,-22
1915,204,4216,106,-2,-11


138,1511,5359,-118,397,-392
-89,1458,5002,-184,479,-372
-240,1606,4527,-259,499,-343
-275,1719,4294,-355,446,-348
-255,1725,4250,-448,370,-376
-266,1551,4265,-547,313,-417
-257,1365,4242,-602,287,-452
-299,1305,4079,-610,279,-488
-366,1228,3780,-638,274,-534
-427,942,3562,-635,239,-615
-416,649,3442,-622,181,-670
-346,436,3427,-656,127,-666
-344,318,3388,-725,85,-628
-443,194,3238,-773,54,-604
-608,92,2914,-786,14,-600
-689,97,2596,-755,-71,-619
-637,23,2586,-691,-207,-667
-513,-78,2745,-597,-332,-722
-438,-211,2964,-524,-420,-763
-430,-191,3161,-448,-458,-775
-322,-134,2998,-372,-460,-797
-236,-232,2812,-401,-498,-830
-311,-409,2669,-455,-575,-845
-445,-537,2588,-467,-666,-851
-515,-738,2369,-423,-780,-879
-444,-1155,2488,-393,-937,-901
-267,-1796,3066,-374,-1061,-847
-57,-2287,3377,-336,-1082,-689
126,-2400,3460,-254,-1045,-492
392,-2377,3783,-164,-1010,-314
628,-2349,4167,-117,-916,-179
642,-2408,4412,-64,-768,-81
605,-2380,4347,23,-616,17
605,-2380,4347,23,-616,17
621,-2184,4128,79,-511,123
610,-1878,4053,44,-482,192
553,-2178,3981,73,-494,189
532,-2699,3760,144,-555,234
615,-2940,4017,168,-665,380
706,-2619,4506,212,-721,565
770,-2018,4843,314,-703,686
871,-1382,4970,449,-652,724
1010,-1156,4985,521,-601,706
1030,-1181,5391,442,-579,737
998,-681,5862,437,-469,809
932,-273,5508,582,-315,780
829,-152,5250,618,-262,751
715,297,5405,571,-257,779
597,770,5289,544,-234,745
462,686,5299,508,-221,641
333,345,5113,490,-194,584
227,446,4868,508,-208,611
239,1007,4976,548,-250,627
411,1540,5300,595,-260,569
545,1877,5604,592,-212,472
695,2049,5864,565,-119,383
810,2112,5910,527,-1,315
796,2293,5810,422,103,301
714,2551,5689,288,176,288
617,2586,5476,145,231,233
463,2508,5018,44,248,159
368,2462,4677,-67,192,98
453,2349,4713,-226,99,32
533,1921,4864,-288,29,-59
636,1552,5288,-305,43,-84
718,1721,5130,-356,153,-69
704,1804,4719,-384,226,-127
667,1705,4537,-427,238,-214
578,1531,4471,-453,238,-306
476,1378,4201,-457,254,-399
444,1158,3895,-478,242,-495
458,901,3754,-509,192,-573
517,717,3758,-536,135,-615
576,637,3778,-563,94,-641
544,608,3704,-583,68,-677
513,603,3580,-600,44,-733
449,565,3405,-601,10,-812
400,502,3271,-591,-43,-896
431,289,3267,-590,-106,-973
349,-17,3135,-596,-152,-1014
246,-249,2907,-638,-216,-1002
244,-465,2863,-705,-310,-966
204,-558,2940,-745,-402,-919
265,-537,3010,-712,-466,-894
433,-539,3162,-656,-511,-910
477,-540,3321,-565,-531,-935
421,-416,3226,-459,-531,-949
388,-592,3077,-469,-550,-989
333,-1012,3114,-455,-598,-1049
355,-1283,3116,-407,-647,-1066
379,-1520,3255,-387,-702,-1041
366,-1280,3424,-394,-735,-953
429,-1045,3293,-292,-766,-941
581,-1273,3129,-258,-833,-948
752,-1574,3217,-319,-934,-890
837,-1686,3378,-365,-1018,-786
937,-1748,3637,-378,-1076,-685
1062,-1665,3943,-319,-1097,-595
1191,-1383,4060,-221,-1066,-532
1297,-1217,3936,-155,-1027,-519
1339,-1391,3944,-170,-1027,-521
1375,-1657,4029,-239,-1037,-473
1467,-1961,3951,-289,-1023,-407
1467,-1961,3951,-289,-1023,-407
1615,-2316,3989,-311,-1023,-325
1709,-2644,4113,-250,-996,-220
1783,-2997,4006,-134,-962,-86
1806,-3162,4056,-23,-939,100
1778,-2832,4114,150,-909,301
1782,-2293,4167,273,-880,458
1756,-1879,4237,342,-858,538
1747,-1683,4194,390,-840,578
1743,-1771,3981,382,-847,613
1820,-1776,4139,307,-901,669
1921,-1793,4522,336,-907,691
2083,-1789,4844,467,-851,708
2246,-1526,4999,622,-757,759
2469,-988,5393,677,-628,815
2425,-1020,5013,856,-483,786
2348,-887,4936,878,-415,833
2300,-596,4785,789,-355,875
2254,-509,4968,710,-333,880
2256,-404,5194,666,-260,891
2200,-339,5016,669,-148,883
2131,-595,4660,646,-83,864
2090,-854,4506,624,-90,908
2133,-689,4722,501,-110,1031
2330,-398,5182,499,-70,1077
2329,-171,5231,632,45,1050
2310,229,5046,659,166,1042
2393,534,4866,598,245,1006
2410,299,4958,462,286,946
2260,155,5106,354,355,954
2075,287,4962,331,455,985
1997,728,4705,372,528,996
1861,1044,4227,458,547,913
1709,1094,3961,467,476,802
1760,1063,4282,379,363,726
1833,821,4592,310,334,660
1820,552,4547,235,382,641
1834,425,4542,145,420,683
1768,644,4560,87,457,755
1760,991,4516,8,508,774
1663,1036,4413,-69,561,700
1447,825,4192,-95,597,605
1304,726,3840,-3,592,527
1169,704,3452,99,522,439
1084,520,3499,84,396,358
1146,446,3826,85,291,311
1252,439,3999,162,251,265
1248,383,3940,213,250,222
1210,398,3816,228,246,193
1200,390,3716,225,215,149
1198,211,3849,187,170,93
1230,-23,4009,165,155,62
1246,-126,3981,118,161,82
1234,-95,3936,46,155,123
1140,102,3812,28,137,141
1118,256,3792,30,97,109
1193,142,3844,62,48,33
1247,-147,4018,72,8,-10
1304,-270,4145,53,4,16
1312,-211,4107,27,14,55
1266,-116,4092,5,11,66
1248,2,4127,21,6,47
1172,12,3981,25,5,2
1226,-100,4089,35,-28,-39
1297,-225,4325,62,-37,-60
1306,-304,4281,49,-7,-40
1272,-242,4175,34,8,-9
1242,-184,4229,1,5,3
1239,-269,4287,-10,17,-8
1239,-269,4287,-10,17,-8
1172,-281,4107,-17,41,15
1172,-281,4107,-17,41,15
1144,-284,4049,-7,27,11
1096,-310,4037,6,8,3
1127,-189,4039,41,-7,-5
1174,-184,4112,100,-25,-45
1177,-317,4163,122,-31,-68
1209,-340,4209,123,-25,-52
1211,-292,4256,141,-12,-36
1179,-157,4179,174,6,-28
1148,-87,4103,180,5,-44
1105,-164,4117,202,-11,-68
1099,-259,4081,187,-16,-62
1101,-214,4055,137,-35,-25
1114,-155,4079,113,-58,-2
1141,-147,4097,92,-74,8
1138,-119,4117,62,-92,19
1193,-43,4143,66,-105,19
1240,-40,4172,56,-111,5
1277,-48,4245,39,-108,2
1297,-109,4270,23,-90,1
1298,-110,4299,25,-69,18
1256,74,4288,19,-38,39
1166,142,4177,9,-8,14
1158,8,4129,30,-3,-32
1232,-116,4238,53,-8,-59
1258,-145,4295,57,8,-57


-181,940,4607,-230,432,-160
-234,1042,4472,-295,443,-183
-255,1127,4492,-343,434,-222
-258,1169,4482,-335,439,-283
-334,1144,4305,-335,458,-345
-373,1197,4180,-352,456,-401
-368,1257,4131,-376,442,-466
-412,1171,3953,-452,436,-523
-487,881,3716,-559,412,-554
-523,707,3595,-663,351,-534
-554,727,3492,-716,289,-505
-564,646,3341,-755,226,-515
-565,562,3306,-790,159,-540
-526,464,3280,-798,101,-577
-496,278,3308,-792,57,-619
-497,53,3172,-794,26,-640
-528,-156,3085,-775,-22,-649
-586,-182,3093,-735,-74,-632
-610,-53,2998,-682,-110,-630
-649,-125,2810,-637,-153,-682
-659,-353,2818,-634,-227,-736
-615,-453,2850,-617,-304,-761
-547,-473,2817,-557,-378,-788
-437,-676,2951,-477,-447,-824
-241,-1154,3065,-419,-508,-832
-224,-1557,3279,-413,-553,-746
-324,-1425,3307,-400,-541,-600
-424,-1031,3051,-356,-536,-539
-473,-927,2893,-354,-581,-562
-422,-1193,2889,-341,-667,-598
-327,-1459,3178,-358,-766,-572
-288,-1557,3293,-383,-821,-504
-246,-1776,3325,-384,-872,-452
-160,-2021,3441,-369,-936,-384
101,-2243,3709,-393,-982,-282
301,-2413,3840,-357,-986,-174
428,-2443,3771,-332,-968,-54
519,-2540,3644,-320,-965,30
610,-2810,3691,-302,-980,83
712,-3031,3823,-212,-993,139
815,-3005,4122,-79,-997,201
877,-2943,4437,66,-936,253
791,-2688,4449,198,-859,328
718,-2425,4391,290,-809,404
690,-2366,4292,384,-803,464
674,-2154,4509,418,-828,573
744,-1751,4482,464,-824,663
789,-1719,4325,495,-834,695
923,-1795,4359,493,-859,751
1013,-1922,4281,552,-883,796
998,-1955,4586,642,-868,841
1023,-1614,4683,783,-781,873
1055,-1111,4809,959,-709,852
1088,-488,5013,1081,-637,824
1102,-70,5040,1117,-565,791
1102,-70,5040,1117,-565,791
1073,73,5094,1114,-515,766
997,361,4963,1082,-475,783
912,715,5052,1035,-468,780
855,1080,5340,993,-460,751
995,1669,5709,952,-433,718
1159,2097,6077,866,-373,660
1152,2255,6152,724,-283,605
1085,2423,6068,560,-201,564
1082,2627,5998,448,-149,488
1136,2498,5935,335,-110,377
1213,2220,5948,221,-74,289
1325,2017,5998,124,-29,242
1350,1883,6103,103,30,202
1352,1914,6112,54,143,181
1253,2029,5857,21,269,142
1189,2160,5522,-24,355,74
1099,1985,5192,-84,396,-32
920,1719,4886,-139,408,-125
845,1772,4810,-184,391,-194
887,1837,4817,-224,389,-295
892,1472,4716,-272,400,-410
870,1109,4601,-323,413,-454
833,1064,4486,-368,430,-450
749,1137,4289,-389,446,-474
638,1114,4033,-402,454,-542
562,957,3805,-416,439,-623
503,703,3602,-423,402,-690
468,582,3468,-441,349,-725
470,479,3418,-488,288,-747
475,441,3416,-546,236,-758
484,328,3349,-588,196,-785
479,212,3356,-588,156,-816
412,334,3248,-575,130,-847
348,360,2966,-578,95,-911
335,27,2711,-591,20,-993
296,-402,2653,-641,-81,-1021
305,-556,2814,-661,-177,-1002
344,-556,2842,-591,-236,-998
311,-715,2644,-546,-288,-1010
325,-774,2609,-613,-371,-969
370,-790,2848,-646,-460,-941
301,-943,2992,-631,-506,-935
232,-1091,2746,-581,-532,-925
246,-1194,2483,-517,-602,-915
327,-1274,2482,-482,-715,-909
523,-1482,2632,-497,-820,-903
736,-1892,2878,-440,-907,-892
918,-2045,3287,-398,-953,-810
1028,-1757,3613,-365,-938,-697
1080,-1575,3605,-328,-882,-649
1074,-1865,3476,-313,-847,-638
984,-1956,3380,-274,-855,-570
1063,-1625,3349,-225,-900,-489
1128,-1538,3530,-216,-964,-470
1167,-1329,3863,-212,-1011,-438
1304,-1198,3925,-182,-1016,-441
1310,-1615,3717,-170,-1026,-467
1386,-2035,3689,-189,-1083,-410
1653,-2317,4016,-225,-1144,-280
1832,-2502,4359,-237,-1138,-125
1841,-2368,4330,-191,-1065,26
1820,-2240,4069,-112,-1008,107
1809,-2343,4000,-29,-995,132
1797,-2389,4060,49,-978,158
1832,-2521,3829,208,-951,142
1851,-2768,3941,330,-968,161
1972,-2514,4086,426,-997,267
2216,-1850,4701,448,-999,382
2216,-1850,4701,448,-999,382
2384,-1504,4945,533,-908,395
2430,-1810,4802,557,-800,399
2454,-2095,4828,521,-738,498
2474,-2022,4967,549,-674,627
2450,-1862,4850,661,-581,696
2505,-1658,4746,716,-514,753
2595,-1578,4791,695,-466,806
2727,-1683,4993,627,-393,875
2812,-1573,4967,810,-306,902
2770,-1495,4761,825,-207,970
2744,-1339,4717,813,-162,1063
2789,-933,4809,870,-116,1134
2741,-378,4765,876,-43,1175
2671,93,4488,887,8,1158
2671,182,4334,848,14,1102
2603,-33,4431,751,2,1072
2573,-90,4444,707,27,1090
2510,110,4280,724,62,1104
2423,573,4344,689,84,1095
2392,872,4381,691,122,1002
2238,678,4251,683,162,876
2072,658,4193,669,182,828
1984,972,4105,679,184,809
1931,1085,4053,621,169,763
1882,991,4056,559,143,715
1898,989,4171,493,128,692
1859,1087,4234,430,143,677
1820,1411,4263,411,164,654
1818,1623,4244,396,188,582
1775,1630,4236,329,202,494
1694,1477,4180,246,217,411
1585,1204,4000,180,221,350
1529,1115,3886,128,193,327
1547,1134,3839,72,151,301
1573,1059,3890,4,105,261
1572,965,3938,-61,82,219
1568,820,3899,-83,69,165
1587,632,3951,-90,49,115
1614,536,4039,-102,51,90
1552,434,3934,-100,79,54
1467,261,3762,-100,84,12
1455,83,3718,-103,57,-15
1492,-10,3760,-108,22,-23
1507,-4,3855,-106,-1,-28
1496,-28,3787,-95,-3,-50
1478,-227,3646,-92,-16,-82
1503,-415,3721,-88,-62,-84
1587,-300,3917,-46,-91,-56
1687,-165,3999,-18,-87,-53
1746,-241,4060,-22,-73,-74
1777,-308,4143,-16,-57,-76
1788,-289,4203,0,-31,-75
1762,-220,4182,24,1,-86
1738,-237,4076,25,24,-104
1683,-355,4037,12,26,-113
1652,-406,3952,7,19,-99
1666,-397,3930,-13,0,-76
1721,-406,3967,-23,-19,-62
1731,-481,4047,-46,-29,-53
1696,-520,4102,-55,-21,-35
1681,-382,4043,-29,-12,-17
1732,-268,4073,-9,-11,-27
1757,-316,4218,-7,-3,-42
1706,-283,4211,-7,31,-32
1641,-266,4047,-10,54,-26
1593,-348,3939,-34,45,-20
1582,-387,3929,-40,20,-9
1607,-372,3979,-15,-2,-3
1687,-262,4019,-1,-12,5
1770,-204,4109,-4,-19,-1
1770,-204,4109,-4,-19,-1
1777,-281,4235,-14,-4,-14
1743,-313,4215,2,34,-19
1673,-312,4082,12,66,-21
1629,-256,3994,29,72,-25


-78,502,4716,-285,112,-565
-117,453,4532,-316,159,-561
-213,408,4268,-369,173,-555
-209,352,4139,-397,143,-563
-179,335,4250,-388,100,-585
-179,335,4250,-388,100,-585
-177,425,4210,-379,95,-613
-178,421,4098,-400,85,-662
-153,378,4131,-420,49,-718
-64,325,4195,-453,17,-754
-28,174,4281,-530,-1,-770
-12,-9,4253,-595,-1,-773
-21,-181,4070,-624,-1,-781
-88,-331,3986,-604,-19,-787
-87,-426,3739,-580,-46,-789
-89,-666,3603,-564,-110,-802
-29,-1030,3681,-542,-187,-785
87,-1304,3678,-574,-213,-723
109,-1567,3387,-627,-246,-662
116,-1851,3523,-618,-321,-600
182,-1970,3730,-513,-346,-534
201,-2012,3778,-364,-328,-489
115,-2056,3612,-168,-306,-474
106,-2120,3532,7,-304,-475
160,-2266,3459,108,-317,-460
169,-2390,3450,83,-343,-401
152,-2377,3491,1,-370,-293
207,-2339,3546,25,-400,-207
259,-2302,3556,89,-423,-129
297,-2176,3636,126,-453,-35
394,-1996,3786,150,-477,45
459,-1969,3879,164,-473,103
414,-2061,3839,205,-457,157
326,-1977,3656,264,-460,231
331,-1749,3471,308,-484,289
411,-1855,3465,338,-529,298
442,-2199,3555,391,-558,319
424,-2088,3600,470,-576,413
430,-1609,3532,579,-596,487
488,-1312,3519,635,-630,514
562,-1224,3748,598,-675,548
629,-1016,4223,609,-700,601
698,-737,4601,678,-648,635
663,-507,4319,727,-543,660
635,-341,4113,764,-533,672
642,-339,4171,772,-573,678
681,-234,4479,685,-605,725
741,237,4770,663,-594,752
776,469,4825,690,-548,683
844,203,5071,714,-479,599
852,-86,4850,754,-393,589
829,-53,4695,718,-375,657
854,352,4961,682,-380,716
844,782,5088,693,-336,702
822,1149,5128,731,-285,627
853,1448,5214,734,-242,535
905,1741,5467,705,-207,458
915,1986,5508,672,-160,394
883,2047,5413,532,-129,359
825,2164,5486,334,-135,364
846,2474,5760,154,-128,360
851,2731,5909,75,-74,278
811,2720,5778,12,3,151
763,2458,5484,-54,59,32
697,2201,5347,-176,70,-24
645,2078,5259,-275,83,-59
606,1861,5015,-340,103,-112
586,1665,4844,-396,105,-155
587,1660,4783,-440,107,-191
615,1575,4627,-493,119,-246
633,1317,4525,-553,119,-301
649,1245,4556,-591,123,-326
633,1329,4406,-582,151,-375
611,1198,4134,-557,165,-466
631,895,3972,-586,148,-542
642,589,3985,-624,121,-579
642,589,3985,-624,121,-579
633,596,4022,-616,111,-587
603,726,3852,-612,117,-619
591,694,3738,-636,100,-682
613,562,3809,-643,68,-748
648,463,3881,-648,54,-789
618,423,3755,-664,63,-815
478,390,3353,-668,44,-844
366,372,3145,-716,-37,-869
408,232,3106,-770,-140,-909
457,-25,3098,-845,-234,-936
471,-268,3113,-867,-323,-951
517,-413,2996,-814,-390,-966
604,-562,2852,-805,-463,-974
732,-751,2992,-820,-559,-984
839,-900,3298,-795,-611,-990
910,-1023,3442,-690,-598,-1011
937,-1033,3235,-637,-558,-1010
952,-1142,2995,-647,-555,-1020
892,-1448,2932,-547,-600,-1047
864,-1709,2710,-444,-648,-1038
895,-2122,2487,-448,-734,-1006
932,-2532,2632,-464,-867,-928
1005,-2659,2942,-401,-973,-817
1111,-2596,3206,-308,-1029,-705
1290,-2493,3436,-224,-1046,-606
1496,-2403,3582,-132,-1042,-519
1646,-2314,3775,-73,-1033,-426
1733,-2221,4029,-30,-1012,-336
1758,-2162,4194,4,-962,-257
1764,-2209,4199,45,-904,-185
1795,-2246,4137,108,-868,-103
1854,-2241,4023,205,-855,-32
1920,-2363,3896,285,-860,21
1938,-2538,3882,320,-880,99
2008,-2613,4002,362,-901,189
2123,-2740,4235,454,-894,260
2159,-2718,4497,557,-844,354
2225,-2351,4586,677,-756,464
2283,-2053,4496,749,-675,535
2269,-1864,4689,759,-629,597
2206,-1552,4715,897,-549,625
2164,-1448,4488,1002,-480,624
2120,-1485,4179,1052,-480,660
2223,-1376,4418,993,-546,769
2382,-1223,4958,949,-544,873
2533,-1026,5354,970,-441,954
2653,-673,5302,1020,-274,1019
2649,-431,4937,1025,-119,1049
2621,-467,4665,967,-40,1070
2557,-522,4631,773,-12,1165
2482,4,4981,593,17,1309
2445,958,5047,713,104,1295
2373,1197,4691,722,219,1129
2262,706,4371,669,252,962
2185,301,4362,611,216,931
2151,292,4584,511,193,1004
2140,535,4640,411,221,1087
2041,805,4602,329,256,1123
1945,1201,4553,286,284,1109
1894,1376,4441,261,317,1017
1774,1286,4353,239,325,914
1683,1341,4397,204,324,867
1733,1421,4328,225,338,799
1787,1181,4270,239,350,687
1735,872,4456,265,359,609
1606,915,4572,396,414,575
1514,1203,4444,535,504,536
1453,1480,4062,607,569,458
1453,1480,4062,607,569,458
1374,1497,3613,512,559,362
1251,1209,3652,264,491,307
1234,1284,3674,295,395,259
1231,1301,3770,213,314,218
1275,1203,3753,149,273,142
1280,911,3685,123,233,51
1235,587,3707,108,184,0
1206,426,3654,76,143,0
1242,300,3640,-17,103,20
1262,223,3691,-58,65,21
1341,12,3823,-173,37,33
1372,-36,4129,-163,36,41
1460,114,4204,-12,67,17
1398,181,4120,36,123,-12
1301,172,3924,87,153,-60
1247,70,3819,130,134,-110
1188,-31,3761,153,95,-137
1149,-126,3675,117,44,-130
1194,-238,3767,31,-28,-90
1260,-206,3975,28,-95,-44
1351,-85,4155,59,-121,-25
1416,-33,4240,54,-112,-36
1522,-114,4308,39,-88,-58
1567,-229,4358,74,-65,-87
1523,-268,4409,113,-38,-83
1529,-202,4369,151,-3,-69
1507,-184,4280,156,24,-63
1450,-135,4248,149,29,-50
1425,-34,4254,153,26,-37
1453,37,4273,153,32,-38
1443,79,4336,154,36,-45
1474,70,4347,174,45,-61
1514,-32,4305,183,57,-74
1455,-90,4336,141,68,-43
1390,-3,4307,125,92,0
1342,113,4181,99,115,18
1310,107,4077,60,120,17
1276,39,4114,14,115,17
1208,99,4186,84,103,5
1177,185,4130,177,104,-20
1189,189,4013,193,99,-50
1162,147,3990,168,68,-67
1151,161,3982,153,36,-65
1186,119,3947,65,6,-45
1309,61,4069,12,-31,-23
1394,65,4213,52,-62,-10
1449,129,4349,38,-56,15
1487,241,4416,33,-21,24
1444,333,4371,82,22,-8
1377,359,4246,127,57,-61
1333,272,4100,147,76,-111
1287,66,4023,132,66,-138
1207,-125,4009,96,45,-125
1137,-205,3950,75,26,-79


-185,594,4324,-276,124,-423
-228,624,4218,-293,128,-450
-228,600,4166,-301,115,-498
-230,482,4073,-313,98,-551
-218,349,4018,-376,65,-559
-197,341,4095,-443,26,-538
-188,400,4173,-498,5,-525
-199,401,4190,-511,5,-554
-179,234,4245,-501,17,-599
-197,-5,4136,-481,43,-627
-271,-128,3849,-471,48,-610
-294,-115,3634,-491,6,-574
-305,-195,3543,-527,-58,-564
-321,-301,3482,-531,-121,-563
-253,-412,3360,-507,-177,-574
-165,-754,3152,-479,-238,-610
-165,-754,3152,-479,-238,-610
-112,-1319,3177,-477,-313,-608
-124,-1589,3280,-486,-364,-519
-160,-1403,3354,-446,-399,-415
-193,-1206,3295,-331,-419,-387
-187,-1352,3102,-252,-456,-411
-213,-1591,3060,-196,-533,-414
-149,-1654,3095,-173,-604,-385
-54,-1965,2968,-230,-662,-370
-2,-2450,3032,-298,-753,-303
156,-2650,3216,-283,-816,-175
337,-2896,3313,-196,-841,-61
444,-3296,3229,-52,-842,46
550,-3558,3125,106,-845,185
641,-3611,3219,261,-849,327
732,-3258,3469,457,-831,451
858,-2703,3533,693,-785,510
932,-2589,3531,836,-765,526
1046,-2364,3943,939,-761,596
1162,-1907,4179,1079,-714,665
1160,-1623,4292,1167,-659,723
1171,-1136,4439,1231,-633,811
1164,-645,4714,1251,-591,878
1101,-97,4822,1278,-536,915
1113,429,4987,1295,-494,913
1052,745,5258,1264,-450,893
1007,1272,5449,1209,-388,903
1009,1808,5531,1135,-331,881
912,2223,5699,1033,-290,825
869,2661,5846,960,-240,738
879,2665,5803,910,-180,602
836,2478,5858,799,-142,522
839,2715,6056,677,-108,514
883,3119,6163,559,-46,485
927,3403,6228,446,30,405
929,3545,6296,320,116,296
866,3589,6263,207,213,178
797,3427,5954,94,308,68
602,3115,5495,-62,362,-9
441,3126,5183,-238,360,-38
378,3116,4948,-355,335,-117
371,2765,4715,-473,303,-230
465,2390,4644,-552,266,-318
551,2078,4577,-606,259,-381
572,1661,4208,-683,273,-420
546,1326,3968,-804,254,-417
524,1290,3823,-877,231,-422
519,964,3623,-876,210,-505
515,458,3418,-833,177,-594
572,299,3318,-804,134,-632
587,329,3327,-791,93,-675
596,415,3284,-773,65,-736
581,254,3074,-744,30,-817
500,-38,2852,-753,-32,-864
430,-196,2755,-799,-122,-858
422,-282,2762,-841,-211,-841
361,-305,2831,-788,-294,-853
285,-339,2896,-675,-359,-901
274,-399,2922,-542,-406,-956
269,-439,2880,-399,-463,-1003
243,-589,2759,-348,-531,-1024
153,-658,2349,-322,-623,-1024
284,-1083,2308,-367,-783,-1039
426,-1787,2666,-380,-937,-1019
492,-1927,2931,-351,-1013,-894
562,-1422,2995,-268,-1046,-774
669,-1068,3174,-259,-1073,-756
738,-1111,3462,-177,-1099,-813
764,-1415,3596,-178,-1089,-809
764,-1415,3596,-178,-1089,-809
742,-1635,3451,-169,-1081,-733
807,-1713,3256,-134,-1127,-646
856,-1916,3510,-105,-1229,-576
1084,-2117,3880,-54,-1298,-473
1301,-2117,4056,30,-1319,-352
1433,-2009,4355,7,-1319,-191
1636,-1732,4459,18,-1276,-54
1721,-1646,4287,92,-1231,-2
1825,-1691,4230,138,-1230,37
2101,-1937,4400,190,-1238,61
2220,-2362,4607,262,-1204,105
2155,-2394,4535,348,-1127,221
2197,-2149,4470,420,-1063,329
2280,-1981,4540,530,-1023,376
2297,-1838,4517,642,-979,411
2368,-1827,4629,737,-947,446
2461,-1762,4869,839,-874,503
2488,-1547,4663,989,-798,574
2594,-1293,4905,1040,-748,651
2696,-856,5368,1110,-664,720
2746,-327,5541,1187,-495,751
2674,-89,5384,1212,-313,750
2608,-15,5233,1043,-181,821
2691,161,5343,921,-85,892
2659,43,5383,1011,13,887
2660,17,5248,1024,148,939
2765,132,5145,1003,270,1006
2818,292,5210,990,363,1065
2751,575,5317,1011,484,1103
2606,1140,5219,1063,628,1131
2569,1756,5045,1112,756,1101
2471,2090,4833,1047,859,1024
2294,2243,4726,907,929,960
2020,2485,4339,897,971,885
1793,2559,3950,826,948,778
1648,2295,3810,662,868,669
1543,1963,3760,517,775,609
1528,1716,3745,365,690,605
1528,1494,3711,225,627,622
1517,1341,3632,87,580,644
1494,1316,3676,-61,546,664
1497,1433,3846,-153,532,653
1538,1544,3982,-182,553,593
1540,1643,4010,-196,605,507
1471,1552,3895,-205,665,393
1249,1333,3610,-176,696,297
947,1329,3015,-65,662,243
778,1261,2639,23,510,167
793,1062,2788,36,299,88
821,704,3107,-7,134,42
932,559,3325,-25,28,54
1082,610,3577,-37,-40,82
1245,658,3818,-42,-59,70
1283,629,3984,-51,-42,40
1262,650,4124,-46,-13,23
1248,672,4180,-40,27,0
1288,621,4234,-43,65,-28
1237,538,4301,-53,105,-47
1138,558,4323,-20,150,-65
1051,535,4089,62,190,-103
946,401,3773,121,171,-140
885,293,3623,94,91,-133
964,278,3738,28,-15,-98
1120,296,3990,-14,-109,-77
1274,289,4235,-40,-155,-68
1403,202,4444,-92,-160,-58
1460,114,4669,-109,-117,-43
1471,149,4580,-2,-51,-49
1466,146,4432,16,4,-49
1466,146,4432,16,4,-49
1422,92,4364,8,31,-47
1352,34,4305,29,44,-49
1290,20,4252,35,49,-31
1255,83,4163,44,45,-10
1246,173,4139,25,27,1
1258,221,4186,6,3,3
1280,242,4240,0,-12,-2
1278,219,4299,-4,-11,-2
1266,199,4299,12,-2,5
1269,199,4263,25,7,20
1276,189,4218,-2,13,47
1269,200,4215,-28,10,74
1258,229,4258,-33,15,93
1233,298,4246,3,28,90
1166,343,4142,24,48,76
1120,358,4031,47,48,58
1081,368,3991,64,33,38
1031,351,3986,68,12,19
1070,325,3914,67,-9,6
1116,295,3986,32,-43,3
1139,304,4233,30,-71,11
1179,386,4299,73,-57,13
1208,422,4243,83,-33,6
1193,431,4204,99,-21,-10
1158,457,4140,87,-18,-10
1146,540,4093,53,-25,-4
1159,553,4057,28,-39,-15
1192,446,4095,1,-61,-29
1199,325,4171,-11,-79,-26
1188,240,4198,-35,-78,-2
1182,261,4184,-42,-72,24
1218,327,4204,-20,-68,35
1243,402,4214,8,-58,24
1232,448,4178,23,-45,6
1250,445,4142,30,-40,-11
1280,386,4135,22,-46,-20
1264,325,4163,-8,-47,-11
1248,333,4171,-21,-47,6
1283,402,4151,1,-46,8
1299,422,4158,17,-45,-7
1328,410,4127,40,-48,-15
1370,361,4059,45,-55,-11
1364,306,4072,0,-73,22
1363,384,4103,-35,-95,76


-672,2083,3230,-1319,537,-563
-706,1651,3183,-1310,472,-682
-753,1338,3193,-1319,418,-738
-842,1345,3069,-1358,385,-733
-905,1459,2797,-1410,338,-738
-931,1375,2437,-1434,241,-805
-900,1003,2318,-1478,92,-888
-809,487,2605,-1486,-58,-951
-711,83,2755,-1422,-147,-967
-699,-251,2747,-1309,-212,-966
-786,-556,2822,-1183,-259,-932
-826,-676,2644,-1083,-285,-860
-837,-864,2496,-1042,-347,-812
-904,-1128,2614,-994,-444,-761
-984,-980,2937,-904,-515,-670
-975,-531,2955,-768,-538,-630
-943,-440,2827,-642,-558,-702
-897,-781,2677,-511,-615,-803
-755,-1390,2696,-452,-711,-845
-662,-1962,2979,-478,-815,-757
-666,-1767,3250,-507,-887,-538
-529,-1042,3328,-475,-919,-389
-339,-905,3381,-429,-953,-437
-287,-1528,3636,-455,-985,-544
-299,-2270,3595,-425,-970,-559
-179,-2670,3541,-410,-963,-455
-65,-3015,3443,-329,-980,-319
-19,-3105,3213,-210,-1029,-154
102,-3064,3406,-167,-1107,6
159,-3074,3674,-79,-1148,135
254,-2901,3955,46,-1144,274
353,-2734,4081,162,-1106,390
356,-2774,4025,289,-1063,469
343,-2870,3853,412,-1029,553
315,-2934,3836,488,-1026,651
371,-2678,4006,631,-1042,756
608,-2177,4315,864,-1060,828
862,-1669,4810,1086,-1038,874
979,-1088,4909,1214,-947,920
1085,-407,5353,1233,-855,954
1174,127,5645,1341,-717,920
1125,737,5469,1451,-616,864
1080,1186,5874,1378,-555,824
1035,1453,6196,1333,-437,780
901,1606,5972,1340,-309,738
684,1724,5792,1264,-239,728
577,1921,5712,1154,-199,734
551,2014,5738,1072,-176,709
505,2166,5882,1046,-148,675
499,2508,5897,1038,-90,634
575,2694,5808,1032,-29,551
624,2593,5870,988,28,458
581,2474,5865,931,118,396
439,3095,5677,815,218,402
508,4089,5380,631,288,342
567,4026,5086,421,292,110
449,2934,5069,201,258,-103
449,2934,5069,201,258,-103
393,2290,5098,62,250,-146
435,2341,4996,1,265,-122
497,2431,4850,-47,274,-148
557,2373,4875,-112,275,-209
591,2511,4888,-202,306,-262
621,2639,4718,-289,352,-358
594,2351,4588,-352,379,-503
480,1855,4302,-418,405,-606
351,1568,3924,-508,401,-633
300,1494,3759,-597,349,-648
255,1492,3644,-674,289,-681
261,1532,3601,-747,233,-733
285,1459,3477,-805,190,-804
283,987,3315,-859,141,-881
266,609,3287,-926,84,-892
219,580,3192,-953,40,-879
150,550,3036,-974,-10,-913
85,318,3012,-926,-72,-992
-8,39,2868,-836,-128,-1065
-76,-78,2601,-770,-207,-1103
-53,-142,2401,-725,-330,-1124
-101,-368,2206,-739,-485,-1140
-71,-651,2124,-847,-664,-1109
50,-1053,2221,-960,-843,-1057
88,-1402,2472,-992,-996,-985
67,-1471,2745,-948,-1097,-894
82,-1365,2624,-853,-1140,-829
204,-1340,2262,-722,-1202,-838
412,-1576,2323,-657,-1346,-873
666,-1905,2821,-642,-1480,-859
915,-2138,3271,-527,-1534,-809
1099,-2144,3636,-329,-1518,-723
1033,-1902,3712,-152,-1451,-594
894,-1493,3636,-74,-1397,-451
946,-1148,3566,28,-1395,-383
1037,-1208,3511,158,-1423,-416
1094,-1625,3772,166,-1480,-429
1134,-2019,4038,168,-1506,-357
1237,-2063,4088,134,-1487,-192
1494,-1956,4253,111,-1449,-29
1672,-1969,4233,157,-1383,77
1710,-2013,4243,144,-1334,189
1753,-1909,4401,144,-1296,294
1861,-1760,4621,214,-1248,365
2000,-1665,4745,323,-1187,398
2092,-1784,4870,457,-1120,413
2173,-1768,4828,553,-1032,486
2301,-1530,4672,543,-936,569
2356,-1513,5012,551,-887,587
2366,-1754,5574,756,-763,595
2356,-1657,5186,1080,-578,685
2382,-1356,5005,1262,-461,799
2320,-1103,4394,1549,-455,871
2525,-247,4579,1441,-499,950
2603,-266,5236,1258,-475,879
2705,-236,5863,1308,-337,840
2911,317,6001,1476,-94,818
2926,595,5522,1558,160,770
2754,793,4924,1357,305,813
2744,1009,5010,1225,347,841
2717,1102,5156,1256,397,821
2630,1309,5303,1197,471,830
2495,1451,5123,1157,583,824
2326,1400,4735,1106,662,813
2135,1276,4610,985,685,830
1941,1185,4785,857,703,870
1767,1531,4943,783,767,940
1775,2412,4916,663,879,980
1772,2744,4681,574,992,848
1601,2509,4282,531,1067,674
1601,2509,4282,531,1067,674
1489,2173,3700,563,1070,554
1383,1811,3203,569,961,496
1249,1611,3142,454,778,515
1230,1638,3326,335,615,548
1241,1629,3495,260,517,532
1204,1579,3512,231,464,489
1182,1690,3464,212,420,457
1212,1828,3427,163,377,399
1193,1686,3510,83,332,298
1103,1437,3572,27,302,227
1087,1387,3500,0,284,215
1125,1432,3452,-50,241,216
1074,1470,3460,-85,183,212
1031,1418,3434,-87,119,180
1038,1225,3397,-116,44,138
1052,977,3475,-145,-33,113
1100,845,3631,-149,-99,112
1126,882,3817,-158,-134,122
1125,990,3936,-120,-137,105
1162,1043,3979,-78,-123,61
1211,943,4044,-42,-105,3
1217,814,4137,15,-88,-39
1192,745,4117,65,-59,-56
1170,657,4005,77,-33,-57
1168,534,3931,74,-34,-48
1202,463,3973,49,-52,-17
1251,459,4057,12,-61,26
1279,542,4122,0,-59,53
1313,671,4169,9,-51,56
1356,745,4204,16,-41,33
1385,723,4252,7,-33,4
1390,667,4286,0,-21,-10
1385,581,4288,4,-6,-19
1330,496,4183,4,6,-16
1276,441,4099,-30,0,11
1257,455,4128,-40,-21,37
1257,513,4198,-16,-32,40
1285,545,4237,12,-31,28
1337,578,4277,36,-23,22
1401,633,4348,44,-13,22
1404,666,4403,44,12,17
1361,713,4317,58,51,2
1302,718,4131,38,77,-7
1232,662,3982,-13,75,-11
1177,554,3959,-58,45,-6
1179,466,3978,-58,11,5
1229,424,3977,-64,-12,30
1302,392,4035,-101,-35,67
1315,453,4181,-108,-47,108
1284,640,4206,-92,-31,131
1263,794,4116,-76,-9,119
1242,828,4054,-75,-8,85
1227,763,4091,-83,-19,46
1218,645,4154,-82,-28,20
1192,519,4178,-95,-18,21
1164,448,4099,-83,-7,38
1154,462,3974,-67,-12,63
1193,495,3938,-77,-40,85
1228,533,4012,-85,-70,89
1269,559,4095,-80,-85,80
1312,544,4113,-60,-82,66
1333,529,4135,-51,-77,55
1359,558,4183,-40,-70,55
1384,621,4186,-24,-59,60
1382,667,4166,-29,-49,61
1354,647,4125,-37,-41,57
1316,574,4087,-48,-39,54
1269,489,4050,-56,-45,55
1269,489,4050,-56,-45,55
1230,480,4020,-56,-58,70
1245,541,4039,-60,-73,85


-163,1530,4662,-203,497,-118
-157,1689,4584,-252,504,-119
-142,1697,4683,-314,510,-155
-179,1701,4740,-338,548,-201
-219,1902,4620,-378,611,-230
-230,2043,4477,-444,655,-281
-317,1936,4309,-528,684,-345
-317,1936,4309,-528,684,-345
-402,1829,4114,-622,698,-375
-595,1900,3797,-614,685,-406
-710,2141,3566,-606,643,-450
-722,2203,3375,-609,579,-549
-741,1806,3159,-674,507,-654
-733,1365,2978,-775,416,-677
-726,1116,2883,-904,317,-623
-754,1122,2708,-1031,225,-550
-766,1007,2452,-1130,130,-534
-815,558,2217,-1211,10,-570
-867,99,2094,-1248,-133,-586
-812,-38,2214,-1276,-280,-562
-748,-62,2344,-1226,-393,-569
-792,-133,2209,-1173,-477,-606
-824,-172,2018,-1146,-580,-658
-755,-508,2036,-1084,-723,-757
-618,-1153,2354,-984,-862,-832
-442,-1846,2818,-920,-946,-789
-337,-2137,3020,-817,-971,-633
-267,-2061,2998,-722,-969,-445
-241,-2025,2931,-618,-988,-316
-240,-2130,3040,-464,-1029,-246
-206,-2222,3228,-205,-1050,-198
-76,-2362,3138,-6,-1037,-151
91,-2766,3180,124,-1066,-108
264,-3104,3380,280,-1102,-17
446,-3139,3485,368,-1105,136
521,-3000,3618,438,-1113,298
620,-2875,3784,598,-1113,417
739,-2640,3968,809,-1095,513
810,-2443,4046,954,-1054,608
829,-2350,4112,1076,-1028,703
912,-2125,4327,1188,-1012,822
954,-1561,4641,1299,-983,952
946,-425,5050,1410,-916,1044
987,921,5429,1470,-818,1026
1012,1729,5757,1506,-718,873
968,1986,6064,1488,-615,710
945,2274,6317,1417,-510,628
852,2674,6543,1312,-410,581
811,3170,6706,1172,-305,549
850,3509,6775,1003,-214,507
882,3542,6870,783,-142,468
855,3471,6853,553,-50,459
824,3466,6740,376,45,454
806,3520,6550,280,138,412
748,3572,6325,202,232,342
706,3753,5999,125,324,246
641,3727,5560,18,393,99
546,3541,5247,-142,415,-41
532,3209,5000,-270,416,-184
529,2652,4848,-336,407,-315
565,2353,4762,-403,399,-366
606,2399,4608,-466,410,-380
604,2536,4345,-546,417,-418
604,2311,4053,-619,404,-519
586,1762,3943,-671,371,-616
575,1449,3969,-695,350,-644
538,1488,3800,-716,357,-643
483,1551,3528,-742,351,-669
425,1522,3344,-771,318,-733
375,1232,3139,-828,281,-818
293,668,2945,-828,225,-903
184,319,2820,-820,158,-922
157,377,2742,-814,87,-905
154,460,2618,-819,15,-928
140,249,2545,-824,-74,-991
120,-123,2562,-878,-175,-1009
71,-274,2636,-988,-258,-946
71,-274,2636,-988,-258,-946
-10,-148,2390,-977,-326,-902
-85,-229,2237,-967,-440,-924
-127,-501,2219,-896,-570,-985
-99,-886,2086,-830,-685,-1024
33,-1274,2123,-774,-827,-1017
166,-1497,2265,-688,-961,-969
239,-1612,2298,-648,-1063,-883
272,-1649,2201,-680,-1154,-763
368,-1521,2162,-671,-1278,-645
467,-1349,2192,-621,-1435,-579
639,-1487,2627,-638,-1607,-548
821,-1690,3251,-588,-1724,-527
909,-1763,4202,-515,-1744,-482
1043,-1741,4732,-318,-1601,-458
1111,-1910,4337,-99,-1379,-466
1090,-2223,3880,18,-1286,-412
1170,-2329,3965,12,-1299,-242
1312,-2250,4136,7,-1319,-50
1419,-2170,4300,27,-1325,104
1511,-1977,4489,35,-1317,240
1638,-1754,4573,87,-1287,324
1713,-1712,4569,180,-1260,342
1842,-1802,4691,277,-1248,344
2072,-1937,4884,360,-1226,374
2275,-2149,4980,427,-1169,435
2364,-2328,4981,454,-1084,537
2408,-2291,4989,495,-1010,651
2379,-1894,5314,504,-915,744
2333,-1399,5358,637,-764,747
2337,-1327,5301,852,-613,661
2226,-1625,4992,1063,-484,608
2210,-1524,5091,1207,-424,664
2102,-1446,4360,1558,-401,710
2155,-954,4492,1535,-469,841
2177,-757,4550,1484,-497,925
2296,-724,4571,1558,-527,1001
2613,-467,4973,1542,-510,1122
2820,-19,5241,1591,-402,1195
2961,787,5371,1684,-246,1205
3165,1669,5271,1728,-75,1121
3289,2018,5404,1508,79,994
3278,2029,5488,1433,238,837
3089,1709,5190,1304,398,750
2826,1506,5160,1130,506,751
2550,1704,5073,1078,616,793
2314,2205,4785,1058,712,806
2117,2570,4539,999,767,741
1926,2522,4468,924,788,647
1771,2617,4413,808,812,619
1654,2917,4363,675,845,594
1589,2909,4234,557,884,509
1433,2607,3948,384,921,435
1296,2353,3476,232,928,410
1247,2179,3032,137,868,392
1287,1992,2915,52,748,368
1353,1740,3147,-70,630,354
1320,1675,3306,-152,569,366
1244,1836,3191,-196,541,375
1231,1843,3048,-228,494,318
1296,1556,3105,-289,424,231
1311,1170,3341,-352,371,173
1223,961,3439,-357,368,161
1090,934,3295,-272,373,148
951,940,2989,-162,340,116
848,832,2755,-100,246,78
813,735,2781,-91,105,53
868,756,3023,-133,-22,41
940,661,3312,-156,-109,10
961,528,3462,-120,-156,-18
961,528,3462,-120,-156,-18
975,478,3528,-78,-185,-19
982,580,3594,-61,-220,-1
1043,715,3731,-61,-258,1
1147,704,4017,-62,-287,-30
1224,622,4310,-36,-278,-68
1298,598,4453,34,-232,-90
1337,641,4449,77,-177,-84
1351,694,4408,85,-137,-72
1348,758,4322,79,-116,-71
1374,708,4301,83,-120,-95
1371,545,4322,103,-132,-123
1397,430,4250,100,-137,-113
1481,348,4249,84,-159,-85
1561,290,4348,74,-181,-51
1594,389,4457,65,-176,-3
1627,550,4504,91,-153,18
1636,637,4491,136,-118,-4
1634,628,4478,188,-78,-45
1602,557,4451,224,-36,-78
1505,488,4333,214,6,-87
1437,476,4222,200,33,-76
1422,485,4186,233,38,-75
1410,491,4166,266,38,-71
1379,554,4097,262,47,-54
1366,684,4034,237,46,-35
1349,786,4080,221,29,-39
1357,882,4100,255,26,-70
1361,914,4060,281,32,-111
1323,881,3973,241,35,-122
1323,868,3896,189,23,-111
1372,867,3953,166,-8,-101
1395,779,4021,152,-20,-94
1403,623,3944,128,-14,-76
1379,564,3882,115,-30,-31
1405,726,4020,109,-56,32
1490,1043,4180,131,-55,56
1528,1144,4193,136,-18,17
1445,1028,4159,141,11,-33
1369,969,4119,129,25,-44
1351,1081,4059,104,26,-37
1326,1241,4029,49,9,-44
1218,1411,4241,-250,-39,-39
1438,1376,4616,-338,-38,-77
1372,1271,4256,-50,42,-218
1357,981,3993,-12,50,-280
1401,768,4171,-78,-6,-243
1471,959,4391,-21,-42,-184
1585,1362,4557,16,-47,-155
1685,1509,4771,-51,-32,-182
1722,1373,4999,-132,8,-228
1760,1272,5121,-150,75,-259
1789,1232,5127,-187,149,-268


85,1612,5658,243,522,-167
82,1634,5596,189,607,-198
84,1677,5575,114,672,-201
5,1819,5391,-3,741,-182
-83,1998,5094,-129,783,-180
-122,2024,4934,-207,785,-237
-181,1885,4813,-277,775,-305
-262,1781,4584,-377,773,-339
-301,1695,4274,-472,749,-371
-311,1530,4109,-562,697,-403
-290,1445,4068,-643,657,-423
-257,1302,3921,-730,646,-442
-257,1302,3921,-730,646,-442
-309,1122,3704,-830,643,-439
-422,1007,3418,-913,631,-423
-560,1037,3160,-989,603,-409
-681,1169,2961,-1038,563,-433
-761,1197,2727,-1063,513,-514
-870,957,2504,-1123,452,-611
-983,598,2179,-1210,368,-670
-1084,256,1844,-1321,245,-672
-1159,171,1732,-1437,82,-637
-1078,249,1750,-1492,-84,-637
-969,-120,1718,-1507,-228,-724
-1002,-798,1667,-1466,-363,-804
-997,-1253,1545,-1340,-492,-822
-912,-1515,1590,-1165,-649,-814
-725,-1708,2057,-1028,-785,-768
-576,-1968,2245,-932,-837,-701
-591,-2243,2286,-856,-870,-619
-611,-2257,2239,-739,-910,-515
-568,-2255,2182,-627,-973,-447
-524,-2403,2448,-485,-1057,-419
-453,-2418,2647,-368,-1108,-369
-367,-2614,2768,-235,-1153,-344
-272,-3123,2867,-45,-1194,-321
-64,-3788,3044,176,-1238,-231
172,-4310,3142,360,-1268,-14
393,-4356,3210,444,-1299,297
595,-4022,3688,547,-1341,573
816,-3375,4175,763,-1319,726
987,-2702,4490,1031,-1222,749
1098,-2189,4765,1272,-1105,685
1196,-1864,5072,1439,-989,617
1230,-1599,5461,1458,-875,617
1145,-1032,5932,1425,-767,685
1090,-60,6575,1425,-609,745
912,653,6334,1529,-405,694
657,1260,6165,1573,-323,628
558,2203,6387,1392,-308,625
492,2761,6658,1135,-303,576
431,2850,7003,888,-276,509
424,3015,7204,698,-202,466
365,3275,7229,556,-103,406
320,3543,7100,417,-9,323
282,3574,6938,291,66,210
217,3301,6592,148,133,105
146,2847,6180,11,171,29
115,2507,5853,-92,181,-3
147,2549,5673,-186,188,-11
192,2690,5465,-234,222,-76
247,2701,5161,-264,260,-199
319,2490,4848,-295,282,-339
368,2031,4427,-396,287,-441
405,1616,4170,-531,256,-479
448,1473,4091,-652,224,-480
520,1425,3955,-709,209,-508
565,1427,3847,-745,202,-573
641,1345,3774,-778,209,-673
651,812,3581,-787,229,-803
511,363,3382,-804,247,-863
408,317,3174,-811,250,-872
259,221,2857,-803,224,-900
95,49,2547,-817,159,-926
-37,-121,2370,-821,54,-944
-121,-226,2241,-785,-70,-956
-127,-371,2174,-750,-206,-966
-105,-524,2220,-716,-349,-970
-60,-648,2303,-686,-474,-969
-53,-694,2286,-698,-576,-963
-6,-870,2347,-707,-672,-984
-23,-1243,2361,-670,-753,-1017
-23,-1243,2361,-670,-753,-1017
-59,-1570,2406,-676,-836,-990
-17,-1660,2444,-713,-914,-906
113,-1773,2475,-727,-997,-834
160,-2025,2573,-722,-1090,-781
195,-2110,2817,-688,-1172,-702
344,-2043,2951,-580,-1223,-639
535,-2098,3070,-424,-1275,-618
767,-2074,3432,-380,-1306,-554
868,-2068,3506,-327,-1285,-488
919,-2084,3505,-240,-1298,-420
1034,-2015,3696,-195,-1318,-344
1152,-2094,3799,-136,-1306,-308
1162,-2419,3745,-86,-1292,-275
1183,-2615,3778,-57,-1290,-186
1230,-2471,3837,-6,-1284,-68
1260,-2138,3842,99,-1288,14
1383,-2069,3968,185,-1296,36
1541,-2330,4256,269,-1294,35
1625,-2507,4407,332,-1259,115
1652,-2327,4349,366,-1208,254
1738,-1942,4589,421,-1185,347
1798,-1548,4718,478,-1126,381
1815,-1367,4787,458,-1043,398
1896,-1621,4684,543,-970,391
1942,-2024,4452,728,-954,423
1987,-2257,4371,814,-979,549
2062,-2153,4598,794,-1007,719
2131,-1676,4849,780,-964,832
2222,-1245,4829,975,-873,817
2411,-686,5310,1294,-821,738
2589,-310,5641,1421,-666,650
2643,-287,5653,1441,-489,593
2744,-238,5822,1366,-328,631
2934,13,5931,1278,-165,716
2953,375,5829,1183,-7,798
2875,737,5823,1055,130,843
2721,1050,5752,1009,260,823
2619,1464,5616,985,368,784
2568,1680,5422,999,433,694
2508,1455,5321,964,472,607
2433,1370,5232,741,514,634
2414,1581,5405,539,599,666
2259,1577,4784,695,689,578
2148,1624,4547,644,707,520
2035,1629,4677,509,738,473
1816,1660,4193,513,800,420
1538,1686,3434,462,785,370
1317,1486,3164,337,651,310
1217,1179,3286,228,495,266
1190,906,3440,127,385,260
1167,662,3428,57,326,264
1155,559,3355,31,275,267
1184,595,3397,14,222,254
1186,647,3403,25,190,211
1228,610,3334,73,160,139
1327,388,3449,102,114,71
1361,211,3726,98,87,59
1335,314,3842,120,100,82
1301,444,3658,164,119,72
1234,401,3568,193,91,36
1236,316,3625,192,45,14
1299,274,3852,174,8,12
1339,297,4022,157,-1,23
1331,488,4114,138,4,44
1337,747,4215,137,6,34
1345,701,4223,130,16,-20
1296,399,4165,105,17,-61
1219,282,4164,96,4,-53
1240,349,4146,108,-8,-37
1240,349,4146,108,-8,-37
1301,383,4158,99,-29,-34
1370,419,4364,76,-46,-31
1379,499,4483,65,-29,-32
1386,582,4403,53,1,-44
1388,439,4291,21,11,-69
1374,224,4369,-9,6,-71
1372,180,4352,-5,22,-52
1403,154,4282,2,35,-38
1448,235,4379,-3,39,-22
1447,407,4433,-7,60,-15
1378,366,4252,-22,92,-37
1264,94,4089,-43,92,-53
1210,-72,3996,-46,73,-39
1211,-56,3955,-42,48,-8
1245,65,4063,-31,20,12
1260,212,4102,-10,12,19
1294,328,4059,-5,9,12
1310,314,4148,-9,0,-8
1275,145,4109,9,6,-36
1249,36,3937,30,8,-33
1306,88,3976,31,-18,-8
1381,156,4138,6,-30,18
1384,255,4261,-9,-11,40
1346,411,4221,0,26,39
1304,419,4113,26,48,4
1262,228,4098,42,49,-30
1230,144,4064,47,51,-25
1228,232,4029,60,44,-6
1220,322,3991,70,27,-2
1236,395,3993,49,5,-11
1268,314,4075,23,-17,-21
1319,208,4198,3,-28,-13
1338,233,4271,-13,-15,17
1333,299,4186,-17,3,34
1304,309,4133,-13,6,29
1294,356,4134,-6,0,19
1314,272,4123,-3,-8,-3
1316,201,4215,-15,-15,-3
1324,320,4250,-12,-6,10
1306,426,4217,-14,6,3
1278,332,4130,-8,10,-22
1294,156,4076,-8,-1,-29
1325,74,4146,-29,-18,0
1316,148,4187,-31,-18,37
1311,288,4115,-14,-12,47
1335,281,4117,-10,-13,24
1358,184,4224,5,-12,0


-422,1825,4597,-188,599,69
-453,2076,4365,-207,640,2
-560,2023,4187,-238,646,-111
-652,1955,4111,-296,632,-199
-646,1771,4123,-311,618,-284
-648,1469,4191,-324,619,-349
-806,1392,4050,-369,655,-353
-1032,1410,3593,-391,666,-358
-1103,1660,3268,-416,596,-378
-1062,1881,3253,-476,471,-449
-1000,1752,3491,-563,365,-551
-927,1478,3452,-657,309,-614
-936,1526,3372,-751,251,-628
-893,1652,3358,-830,205,-665
-908,1504,3027,-945,171,-738
-959,1375,2742,-1116,91,-788
-950,1347,2634,-1281,-18,-838
-943,1067,2401,-1406,-137,-916
-919,611,2293,-1542,-285,-977
-863,-135,2383,-1624,-430,-1023
-905,-411,2607,-1663,-539,-986
-964,-68,2631,-1603,-598,-960
-910,-143,2369,-1487,-656,-1067
-886,-900,2320,-1349,-765,-1210
-831,-1485,2554,-1205,-878,-1225
-852,-1667,2711,-1103,-942,-1128
-871,-1185,2696,-1075,-977,-972
-652,-943,2520,-1027,-1016,-959
-315,-1784,2528,-993,-1087,-1053
-166,-2838,3158,-1005,-1185,-1008
-210,-3265,3514,-949,-1169,-781
-292,-3183,3261,-911,-1079,-507
-368,-3046,2856,-733,-1080,-315
-164,-2948,2931,-566,-1153,-218
39,-3365,3198,-451,-1209,-182
159,-3828,3497,-282,-1214,-86
245,-4089,3413,-40,-1162,47
301,-4445,3268,198,-1143,187
301,-4445,3268,198,-1143,187
510,-4408,3779,405,-1156,394
592,-3695,4225,648,-1093,602
677,-2354,4249,823,-987,748
835,-1965,4108,911,-924,725
806,-2713,4170,961,-922,721
898,-3091,4261,1017,-915,907
971,-2579,4576,1052,-903,1188
1009,-1075,4918,1131,-863,1398
996,265,4934,1186,-773,1379
1034,242,4249,1273,-750,1156
1177,-638,4519,1254,-858,1015
1248,-573,5614,1200,-889,1112
1312,1242,6577,1277,-716,1216
1228,2470,6191,1430,-440,1037
997,2433,6160,1450,-320,766
970,2506,6915,1399,-255,660
938,2906,7133,1252,-107,678
692,3456,6945,1029,27,712
531,4077,6728,831,103,685
490,3976,6544,663,134,542
611,3641,6727,518,148,426
741,3719,6831,368,232,368
763,3649,6442,216,363,268
718,3220,6060,119,455,129
683,2833,5950,71,532,22
653,2999,5637,19,636,-32
530,3036,5016,-42,714,-146
298,2587,4312,-152,712,-291
164,2252,3959,-311,630,-375
177,2055,3943,-424,533,-454
194,1646,3893,-506,471,-547
130,1193,3721,-548,427,-602
89,1294,3451,-541,377,-625
109,1472,3257,-558,297,-711
194,1138,3289,-600,209,-848
291,579,3327,-663,148,-932
345,231,3236,-716,113,-935
281,232,3063,-755,80,-909
122,447,2700,-803,26,-919
-25,366,2324,-865,-85,-1005
-50,209,2400,-934,-251,-1086
21,89,2626,-990,-387,-1147
6,-316,2579,-1053,-484,-1192
-20,-652,2601,-1042,-583,-1196
52,-1030,2539,-936,-675,-1213
162,-1596,2515,-898,-773,-1190
273,-1689,2764,-842,-873,-1088
339,-1457,2639,-831,-918,-985
283,-1417,2220,-853,-995,-957
389,-1386,2206,-729,-1153,-994
602,-1585,2404,-582,-1313,-1075
677,-1866,2811,-481,-1446,-1112
772,-1941,3453,-398,-1510,-1081
993,-2117,3694,-287,-1472,-1047
1087,-2673,4129,-244,-1419,-976
948,-2878,4251,-128,-1314,-788
913,-2555,3848,-23,-1198,-561
984,-2392,3711,18,-1184,-411
962,-2164,3876,47,-1215,-284
1049,-1715,3935,70,-1210,-194
1241,-1710,4047,101,-1200,-206
1362,-2202,4126,135,-1194,-207
1397,-2545,4094,174,-1186,-100
1494,-2540,4130,171,-1188,67
1715,-2458,4566,133,-1188,216
1765,-2338,4960,223,-1122,336
1751,-1987,4885,417,-1001,440
1759,-2041,4555,597,-912,481
1793,-2233,4716,768,-892,520
1793,-2233,4716,768,-892,520
1866,-1822,4767,930,-832,594
2004,-1470,4529,988,-777,602
2168,-1549,4950,973,-767,577
2312,-1452,5284,1014,-679,621
2385,-1123,5006,1063,-558,709
2488,-707,5119,1016,-492,804
2588,-591,5400,1110,-436,849
2599,-240,5676,1125,-314,946
2555,82,5591,1076,-149,1028
2470,280,5427,1112,-12,1060
2317,423,4956,1126,103,1078
2284,566,4724,1066,144,1092
2333,616,5071,1035,164,1071
2409,397,5348,1072,269,1038
2381,356,5189,1138,416,1079
2312,1029,5055,1155,523,1186
2316,2112,5306,1052,606,1254
2188,2687,5158,1015,722,1157
1794,2714,4512,1003,806,988
1523,2685,4164,871,786,857
1409,2483,4048,704,717,738
1245,2212,3768,531,645,664
1206,2183,3595,352,543,628
1287,1818,3678,198,437,544
1236,1247,3779,69,371,493
1194,1071,3741,-12,344,503
1201,1105,3624,-58,320,489
1187,1197,3453,-92,283,438
1173,1262,3223,-85,215,346
1223,950,3374,-93,109,227
1323,614,3768,-120,49,165
1343,556,3808,-113,60,149
1230,554,3574,-91,62,128
1176,481,3510,-89,17,106
1201,372,3649,-105,-37,95
1236,368,3898,-108,-72,97
1220,423,4007,-86,-70,88
1181,459,4023,-60,-57,66
1149,527,4087,-15,-53,28
1132,540,4042,36,-45,-20
1207,510,4107,48,-60,-52
1256,413,4359,38,-72,-61
1248,461,4428,65,-46,-56
1279,561,4271,104,-17,-75
1325,440,4279,102,-18,-109
1310,283,4353,83,-18,-108
1265,335,4261,72,-8,-75
1277,369,4149,44,-17,-56
1370,223,4287,-10,-45,-53
1413,104,4467,-30,-41,-38
1384,177,4343,-8,-6,-20
1386,282,4212,-9,7,-25
1378,208,4253,-6,3,-50
1346,221,4236,43,6,-65
1286,201,4152,29,15,-65
1209,132,4098,13,15,-61
1188,127,4083,11,1,-48
1189,86,4103,24,-15,-36
1208,107,4089,61,-25,-20
1257,203,4053,87,-34,-6
1303,338,4135,99,-51,-8
1377,392,4318,112,-52,-31
1397,298,4453,103,-15,-40
1368,310,4340,103,37,-21
1327,402,4155,104,62,-1
1298,497,4072,72,53,4
1301,482,4134,18,37,-2
1291,367,4130,0,26,-16
1266,283,4089,-19,14,-9
1258,377,4194,-49,0,10
1258,377,4194,-49,0,10
1257,426,4227,-48,6,0
1235,279,4116,-31,12,-20
1230,313,4183,-27,4,-6
1231,386,4166,-26,13,-3
1198,300,4035,-40,13,-10
1209,250,4078,-51,-6,-6
1216,166,4139,-42,-11,-5
1224,143,4093,-32,-5,5
1238,153,4099,-12,-3,9
1229,181,4051,3,-3,11
1214,209,4058,2,-13,17
1234,299,4099,0,-25,23
1269,342,4175,-10,-30,21
1261,358,4243,-4,-22,8
1250,377,4198,1,-2,1
1244,345,4108,2,3,-6
1230,305,4078,-5,-7,0
1210,352,4131,-12,-20,11
1195,279,4083,-22,-17,7
1183,166,3983,-21,-30,14


271,964,5274,252,507,41
245,1090,5297,238,572,40
309,1460,5487,189,643,48
292,1625,5562,86,744,24
124,1636,5471,-19,855,5
-81,2023,5209,-82,956,4
-221,2304,4789,-141,1021,-59
-397,2129,4403,-193,1021,-167
-601,2180,4113,-209,969,-237
-705,2412,3801,-251,898,-312
-702,2293,3539,-360,802,-420
-655,1793,3472,-510,690,-499
-667,1507,3454,-673,603,-489
-656,1574,3294,-800,550,-463
-725,1461,2996,-887,506,-510
-856,1226,2695,-957,437,-579
-947,819,2453,-1031,344,-644
-992,333,2325,-1079,236,-682
-957,-70,2349,-1107,130,-681
-1008,-310,2312,-1112,42,-652
-1138,-148,2042,-1098,-42,-615
-1177,26,1815,-1075,-182,-646
-1131,-132,1870,-1068,-363,-737
-1055,-406,2145,-1037,-531,-810
-1048,-680,2033,-979,-653,-848
-1004,-1052,1825,-926,-798,-863
-868,-1626,1795,-873,-987,-850
-729,-2096,2027,-889,-1169,-750
-538,-2151,2375,-909,-1305,-579
-406,-2057,2555,-906,-1389,-439
-390,-2058,2532,-903,-1457,-351
-418,-2005,2667,-841,-1537,-305
-314,-2094,2967,-623,-1593,-348
-109,-2731,3300,-375,-1608,-404
155,-3344,3546,-125,-1582,-338
396,-3634,3629,49,-1532,-142
475,-3717,3616,170,-1481,106
540,-3651,3443,346,-1439,328
695,-3505,3522,529,-1434,489
847,-3010,3914,711,-1421,610
1103,-2246,4336,918,-1367,662
1324,-1816,4650,1031,-1274,659
1457,-1829,4875,1106,-1179,671
1558,-1754,5294,1144,-1080,764
1560,-1298,5843,1239,-949,885
1545,-606,6088,1429,-773,962
1552,253,6226,1555,-611,1012
1585,1190,6507,1620,-474,1027
1501,1777,6567,1603,-333,997
1377,2810,6786,1459,-226,1013
1461,3989,7017,1248,-122,952
1444,3920,6985,1022,-20,741
1303,3294,6890,783,65,606
1181,3404,6972,575,153,591
1153,3804,6840,459,278,514
1075,3518,6539,379,392,344
1075,3518,6539,379,392,344
918,3169,6328,299,475,231
808,3593,6057,223,548,183
782,3881,5705,111,597,51
647,3548,5409,-46,618,-127
571,3431,5192,-173,624,-259
558,3168,4750,-281,633,-412
517,2583,4479,-416,599,-541
487,2217,4419,-509,555,-597
408,1968,4032,-595,541,-630
369,1743,3677,-714,488,-665
403,1566,3548,-817,411,-721
424,1042,3369,-884,350,-807
442,477,3205,-945,290,-855
429,403,3128,-1001,226,-843
426,633,3106,-1052,169,-855
423,617,2999,-1085,116,-940
371,196,2795,-1107,54,-1042
226,-67,2615,-1109,-34,-1092
152,8,2489,-1110,-137,-1120
113,-115,2443,-1040,-268,-1201
-21,-391,2391,-937,-402,-1279
-151,-544,2276,-842,-514,-1323
-193,-673,2156,-772,-634,-1363
-138,-869,2190,-722,-775,-1395
37,-1280,2433,-674,-917,-1417
119,-1845,2419,-675,-1001,-1383
125,-2102,2271,-639,-1099,-1268
288,-1908,2425,-579,-1222,-1126
498,-1867,2656,-602,-1323,-1041
540,-2203,2833,-617,-1388,-986
541,-2514,2700,-560,-1435,-893
546,-2565,2522,-520,-1515,-754
676,-2435,2799,-481,-1633,-618
944,-2302,3449,-370,-1725,-544
1149,-2196,3823,-206,-1710,-512
1309,-2287,4055,-85,-1637,-482
1375,-2404,4201,42,-1564,-414
1413,-2408,4102,130,-1483,-292
1556,-2386,3873,168,-1433,-165
1678,-2443,3783,245,-1442,-67
1709,-2419,3793,341,-1466,33
1805,-2289,3967,389,-1477,128
1914,-2127,4325,440,-1450,208
1947,-2127,4271,604,-1358,248
1979,-2353,3997,751,-1297,300
2088,-2449,3952,845,-1303,419
2283,-2311,4125,919,-1302,554
2371,-2191,4113,959,-1250,664
2522,-2015,4071,976,-1199,748
2787,-1795,4572,1000,-1138,820
3005,-1395,5065,1153,-996,884
3121,-1195,5140,1315,-772,896
3078,-1354,5064,1437,-558,900
3074,-1327,5241,1490,-348,977
2991,-716,5090,1747,-170,1093
3091,430,4968,1753,5,1202
3179,857,4774,1662,121,1155
3139,824,4825,1603,174,1086
3183,1004,5062,1561,243,1085
3235,1166,5055,1484,368,1107
2984,1356,4351,1391,480,1146
2749,1766,4221,1212,457,1169
2627,2485,4700,1005,427,1146
2654,3123,4877,909,475,1023
2636,3255,4752,781,534,834
2451,2722,4678,508,587,662
2161,1900,4703,272,639,582
1831,1463,4339,228,694,594
1587,1571,3685,240,696,637
1587,1571,3685,240,696,637
1533,1594,3408,209,600,607
1546,1474,3586,152,467,550
1539,1559,3719,133,385,505
1592,1794,3611,130,331,439
1685,1791,3687,67,254,332
1728,1590,4006,-14,193,233
1656,1374,4121,-66,193,168
1569,1215,3968,-96,211,132
1479,1079,3766,-126,198,107
1406,944,3613,-129,151,77
1398,785,3549,-113,88,43
1457,566,3578,-96,18,10
1550,375,3712,-92,-36,3
1640,358,3860,-99,-60,18
1713,482,3970,-105,-57,22
1751,497,4009,-96,-42,-9
1738,377,3995,-75,-20,-62
1684,280,3964,-46,-2,-101
1667,205,3968,-9,10,-121
1626,55,3855,5,19,-119
1602,0,3820,13,0,-90
1640,88,3949,20,-27,-56
1670,139,4019,15,-36,-40
1615,162,3946,11,-32,-32
1600,244,3923,7,-42,-33
1689,196,3999,3,-59,-53
1759,131,4119,-4,-62,-57
1787,324,4291,0,-45,-40
1812,424,4295,34,-5,-59
1769,170,4116,18,32,-85
1709,44,4021,-2,35,-61
1687,163,4047,-12,26,-18
1678,191,3988,-15,22,-6
1681,127,3951,-11,13,-2
1662,187,4016,6,0,8
1646,209,4000,44,-1,-5
1649,85,3923,22,-3,-10
1651,176,4105,-16,-12,10
1675,378,4186,13,6,-2
1651,270,4048,36,36,-43
1633,83,4014,51,38,-53
1609,118,4004,56,27,-18
1596,208,4025,-3,23,24
1583,233,3999,-9,26,32
1586,235,3995,23,22,26
1531,274,3950,51,17,20
1526,283,3879,14,9,29
1536,177,3889,-25,-9,36
1560,153,3950,-31,-26,53
1586,219,4079,-22,-31,66
1571,311,4069,24,-12,52
1573,354,3984,17,12,39
1578,355,4048,36,12,17
1597,435,4108,52,18,13
1597,422,4036,27,37,11
1538,350,3936,13,39,10
1514,283,3851,11,20,17
1528,244,3905,-4,-9,29
1572,298,3994,21,-26,35
1629,371,3973,7,-24,32
1646,296,3998,-7,-29,21
1660,243,4049,12,-29,13
1688,204,4078,55,-24,0
1687,146,3979,66,-15,-3
1675,117,3998,29,-18,17
1682,205,4086,51,-18,28
1663,371,3993,71,-5,25
1691,423,3969,21,-6,17
1697,342,4109,11,-13,-2
1697,342,4109,11,-13,-2
1648,268,4160,23,-1,-7
1613,227,4031,30,16,6
1572,236,3947,19,6,29


-258,1686,4580,-215,436,-261
-242,1745,4604,-308,449,-251
-308,2122,4352,-364,482,-256
-384,2430,3935,-450,494,-336
-443,2273,3563,-584,454,-472
-491,1837,3407,-748,377,-576
-516,1571,3430,-865,307,-619
-531,1414,3360,-900,275,-653
-637,1196,3020,-925,262,-691
-770,980,2606,-980,206,-717
-846,583,2444,-1033,94,-756
-906,49,2373,-1056,-22,-777
-930,-269,2319,-1046,-132,-754
-876,-477,2311,-1001,-243,-732
-835,-674,2410,-956,-348,-712
-816,-629,2628,-922,-441,-665
-773,-468,2788,-840,-510,-645
-772,-356,2814,-762,-567,-650
-813,-478,2639,-709,-634,-677
-813,-478,2639,-709,-634,-677
-773,-797,2557,-676,-734,-711
-708,-1189,2716,-593,-852,-737
-614,-1696,2995,-487,-947,-729
-578,-1926,3219,-407,-992,-627
-470,-1541,3337,-376,-1007,-454
-284,-1270,3350,-326,-1034,-375
-204,-1513,3418,-305,-1090,-361
-122,-1684,3845,-267,-1143,-301
54,-1606,3925,-176,-1131,-228
98,-1636,3762,-138,-1124,-168
117,-1666,3620,-148,-1145,-81
172,-1834,3378,-140,-1181,-2
194,-2150,3159,-85,-1249,69
268,-2507,3203,-3,-1342,148
414,-2629,3498,95,-1415,263
582,-2301,3928,166,-1433,409
726,-1631,4270,273,-1393,502
881,-1237,4564,378,-1317,495
1067,-1436,4694,457,-1229,463
1167,-1790,4795,473,-1150,533
1205,-1569,4948,458,-1072,704
1239,-1043,5019,496,-972,817
1246,-893,4885,612,-878,812
1280,-1011,4818,711,-833,800
1351,-660,5204,730,-799,882
1403,109,5425,757,-715,953
1431,503,5272,776,-630,939
1406,356,5216,799,-590,897
1386,258,5361,798,-556,911
1372,303,5481,841,-485,933
1291,372,5431,915,-391,943
1237,988,5428,969,-312,985
1346,1922,5383,960,-247,984
1439,2044,5438,904,-207,865
1421,1647,5572,829,-158,767
1375,1760,5664,754,-73,758
1359,2475,5813,762,14,724
1359,3349,5729,795,117,599
1327,3454,5480,728,191,396
1214,2964,5435,568,205,249
1111,2976,5611,418,218,237
1126,3497,5640,305,271,231
1154,3703,5506,153,327,140
1129,3530,5531,30,367,-2
1109,3330,5530,-37,426,-139
1076,2974,5312,-90,496,-268
967,2577,4995,-156,544,-351
854,2572,4714,-251,560,-380
829,2352,4452,-377,550,-451
780,1823,4386,-445,514,-535
737,1688,4271,-474,497,-564
704,1820,3912,-501,486,-604
787,1633,3655,-543,423,-697
858,1182,3785,-600,341,-775
872,1067,3821,-646,318,-790
876,1085,3565,-683,318,-826
777,780,3426,-736,294,-896
633,574,3256,-775,268,-932
509,486,2914,-811,223,-954
344,379,2607,-829,123,-987
286,342,2541,-853,-14,-1025
345,141,2770,-886,-153,-1066
326,-236,2906,-901,-235,-1085
264,-402,2791,-845,-284,-1064
234,-376,2611,-745,-343,-1052
187,-450,2480,-669,-425,-1076
149,-541,2460,-615,-523,-1094
163,-550,2491,-537,-622,-1116
208,-822,2456,-501,-721,-1135
185,-1218,2413,-564,-832,-1077
185,-1218,2413,-564,-832,-1077
234,-1082,2432,-626,-950,-948
467,-965,2504,-621,-1057,-902
575,-1512,2442,-569,-1144,-937
605,-2025,2479,-575,-1233,-880
756,-2222,2780,-496,-1313,-776
909,-2262,3034,-400,-1356,-651
1065,-1929,3229,-365,-1371,-486
1236,-1426,3472,-314,-1384,-386
1354,-1110,3815,-234,-1384,-370
1418,-1137,3981,-132,-1345,-409
1452,-1438,4106,-75,-1296,-414
1504,-1647,4063,-37,-1241,-344
1563,-1755,3991,-6,-1216,-241
1571,-1812,4079,-6,-1220,-121
1660,-1841,3965,18,-1218,-21
1828,-2028,4126,20,-1225,52
1978,-2262,4037,199,-1217,87
2104,-2374,4202,267,-1209,176
2292,-2512,4065,350,-1185,266
2517,-2629,4310,426,-1219,368
2691,-2303,5014,462,-1173,521
2751,-1827,5001,557,-996,617
2705,-1598,4631,661,-850,626
2668,-1536,4562,749,-786,615
2659,-1640,4680,841,-740,620
2661,-1656,4770,913,-681,682
2657,-1353,4749,932,-601,786
2701,-984,4734,925,-519,852
2634,-801,4846,1095,-467,833
2574,-466,4860,1170,-383,876
2571,-25,4616,1140,-308,942
2577,54,4670,1063,-287,975
2640,68,4837,980,-250,1032
2675,278,4927,907,-182,1094
2661,789,4920,923,-97,1115
2718,1361,4730,909,-17,1065
2724,1336,4808,843,32,927
2720,1092,4826,823,82,822
2762,1062,4804,798,124,807
2776,1198,4823,730,173,820
2783,1394,4822,666,226,827
2782,1593,4880,627,279,810
2689,1661,4821,561,359,767
2505,1611,4621,483,441,723
2334,1708,4459,455,494,693
2200,1741,4275,444,531,636
2019,1669,4075,425,549,575
1879,1744,3823,430,546,508
1823,1729,3537,420,513,429
1779,1542,3368,365,442,360
1763,1362,3492,272,356,340
1697,1372,3603,179,307,356
1648,1443,3498,142,287,342
1633,1544,3332,100,254,306
1642,1531,3306,15,192,255
1683,1341,3430,-71,129,201
1684,1063,3499,-134,96,164
1657,925,3403,-152,72,157
1675,896,3337,-162,29,145
1708,771,3445,-159,-16,100
1725,560,3541,-133,-38,46
1717,423,3604,-82,-43,9
1686,389,3587,1,-43,-16
1680,378,3521,48,-48,-44
1670,341,3601,77,-67,-68
1703,341,3722,96,-74,-76
1743,336,3809,112,-72,-83
1749,314,3872,150,-67,-90
1751,342,3813,115,-52,-70
1751,342,3813,115,-52,-70
1781,356,3872,59,-58,-47
1827,354,4033,64,-69,-42
1852,359,4098,86,-55,-41
1864,358,3964,51,-32,-35
1854,277,3946,-4,-39,-24
1801,282,3980,14,-57,-17
1835,434,3984,49,-70,-19
1916,458,4051,30,-79,-40
1928,374,4105,4,-82,-52
1946,339,4158,-6,-80,-40
1940,317,4117,3,-74,-29
1923,275,4015,-46,-67,-7
1903,245,4064,-78,-79,14
1942,272,4108,-51,-84,20
1989,223,4124,-9,-72,6
2016,186,4089,-17,-52,12
1992,137,4068,-45,-31,24
1932,139,3997,-44,-10,39
1916,194,3960,-48,-2,55
1922,230,3977,-48,1,62
1924,231,3980,-42,13,59
1910,241,3927,-37,28,62
1903,237,3863,-23,37,64
1911,283,3823,-11,34,77
1877,458,3780,-43,24,106
1855,740,3725,-140,6,126
1825,821,3574,-252,-12,91
1838,735,3441,-350,-73,35
1927,556,3680,-490,-165,-6
2012,362,4026,-555,-214,-32
2024,168,4346,-528,-207,-23
2059,240,4483,-436,-151,42
2144,585,4513,-367,-82,97
2128,750,4538,-411,-11,100
2259,1012,4467,-377,30,72
2393,1108,4455,-428,31,11
2452,950,4582,-536,15,-45
2473,777,4778,-611,-1,-70
2546,689,5189,-644,6,-75


-769,1,3122,-557,-299,-702
-809,679,2935,-547,-314,-710
-661,683,2683,-602,-386,-848
-598,-465,2678,-670,-495,-1015
-553,-1534,2678,-690,-599,-997
-450,-2008,2735,-723,-702,-822
-481,-1992,2908,-747,-795,-600
-472,-1439,3257,-730,-870,-413
-418,-1013,3512,-662,-894,-376
-367,-1053,3584,-578,-881,-439
-285,-1477,3703,-484,-872,-501
-210,-1706,3834,-449,-852,-476
-151,-1850,3815,-418,-820,-429
-127,-2175,3508,-275,-827,-376
-38,-2399,3488,-218,-902,-268
23,-2592,3644,-204,-967,-143
125,-2592,3570,-173,-1013,-10
351,-2658,3680,-150,-1083,90
556,-2895,4104,-98,-1128,170
624,-2788,4440,29,-1095,277
666,-2420,4382,194,-1009,345
705,-2194,4412,341,-940,355
722,-2367,4312,476,-871,343
630,-2634,4131,573,-841,399
632,-2254,4393,607,-849,535
728,-1887,4473,715,-809,599
765,-2039,4101,884,-796,609
842,-2011,4251,980,-856,687
897,-1693,4504,1041,-858,780
931,-1207,4522,1130,-812,838
1022,-567,4531,1208,-778,844
1061,-190,4645,1216,-757,794
1121,-164,4745,1201,-737,758
1209,-191,5183,1120,-696,787
1167,72,5233,1105,-592,856
1133,673,4997,1162,-513,905
1148,1109,5196,1152,-481,883
1073,1054,5147,1149,-419,812
976,1049,4937,1166,-380,782
987,1479,4883,1190,-385,785
1048,1904,4990,1099,-390,749
1063,2250,5364,997,-372,659
1136,2646,5669,974,-306,529
1168,2776,5865,901,-209,393
1152,2786,6028,792,-110,312
1177,3058,6262,701,-21,290
1172,3318,6269,595,83,265
970,3234,5970,426,179,225
766,3203,5659,292,229,187
701,3120,5398,224,241,110
692,2936,5348,188,231,19
770,2985,5441,184,242,-60
839,3049,5321,243,288,-185
835,2937,5082,160,344,-299
815,2839,4869,47,377,-389
868,2830,4769,-77,390,-470
910,2569,4708,-207,412,-581
835,2016,4408,-314,442,-672
711,1464,4118,-401,439,-694
508,1365,3840,-489,414,-649
411,1648,3517,-522,371,-640
419,1675,3322,-552,297,-728
419,1675,3322,-552,297,-728
455,1276,3306,-588,215,-853
482,785,3453,-602,157,-924
448,586,3339,-575,149,-934
346,552,3006,-579,131,-925
263,571,2789,-624,62,-911
221,566,2676,-691,-28,-911
185,356,2563,-717,-131,-942
146,-32,2420,-729,-242,-956
107,-209,2333,-764,-367,-910
153,-163,2320,-818,-496,-854
226,-364,2360,-850,-619,-857
278,-661,2492,-808,-728,-878
345,-902,2602,-712,-797,-904
391,-1252,2691,-589,-847,-933
442,-1201,2468,-583,-886,-886
507,-1080,2359,-630,-1003,-855
582,-1201,2828,-581,-1141,-849
718,-1124,3287,-538,-1194,-800
794,-1008,3198,-430,-1188,-774
748,-1101,2953,-332,-1218,-784
779,-1194,3018,-279,-1308,-768
909,-1318,3111,-252,-1391,-718
1166,-1480,3296,-225,-1470,-649
1328,-1469,3631,-229,-1520,-539
1455,-1236,3793,-247,-1518,-412
1636,-1147,3972,-222,-1500,-341
1698,-1229,4152,-129,-1464,-310
1677,-1410,4113,45,-1402,-280
1763,-1523,4065,206,-1343,-225
1892,-1707,4001,279,-1290,-152
1910,-1946,3843,321,-1251,-56
2008,-2039,3992,345,-1241,69
2128,-1840,4198,448,-1217,164
2272,-1999,4287,669,-1135,152
2430,-2198,4320,1023,-1112,153
2544,-2079,4520,1188,-1044,260
2598,-1715,4174,1227,-980,392
2678,-1626,4152,1063,-968,513
2776,-1497,4621,887,-970,654
2878,-1279,5192,873,-884,775
2891,-832,5067,1062,-728,850
2915,-326,4750,1201,-617,869
2998,-228,4887,1253,-571,843
3034,-245,5098,1302,-501,837
3092,-261,5252,1304,-379,872
3058,-48,5305,1364,-234,920
3053,405,5134,1411,-83,975
3039,699,4849,1402,33,993
2918,949,4632,1209,104,1040
2978,1512,4824,1030,148,1081
2998,1714,4755,1108,211,988
2924,1342,4471,1015,273,912
2753,1174,4468,843,302,938
2590,1550,4422,797,346,976
2536,1904,4140,772,392,937
2458,1746,4027,733,385,845
2356,1666,4146,729,366,812
2336,2064,4183,731,383,821
2294,2350,3984,681,412,780
2189,2272,3815,580,413,708
2127,2192,3812,471,393,667
2150,2223,3921,372,391,645
2159,2484,4047,239,417,637
2054,2612,3873,135,463,572
1898,2454,3549,123,465,465
1822,2199,3424,102,413,381
1781,1905,3495,46,345,341
1715,1834,3527,-26,303,351
1715,1834,3527,-26,303,351
1608,1935,3341,-46,273,338
1572,1841,3136,-78,216,278
1636,1522,3173,-128,132,203
1740,1171,3422,-141,68,151
1813,956,3527,-136,61,143
1804,909,3510,-138,77,142
1742,996,3455,-119,85,128
1760,1115,3397,-102,82,93
1810,990,3519,-128,58,40
1770,646,3587,-136,46,4
1734,465,3550,-137,38,27
1752,538,3583,-136,13,73
1829,764,3757,-96,-12,89
1891,890,3841,-27,-13,48
1931,807,3795,19,-1,-15
1944,616,3788,34,-5,-51
1937,445,3919,39,-13,-43
1941,417,3972,53,-3,-5
1896,488,3945,75,11,29
1841,723,3868,95,14,46
1862,825,3899,84,4,28
1848,735,3968,121,-5,-23
1799,626,3917,129,-4,-46
1769,551,3890,104,-10,-38
1763,575,3927,119,-20,-26
1809,671,3959,148,-24,-23
1843,712,3955,159,-22,-32
1888,693,4001,172,-21,-41
1909,677,4009,185,-10,-45
1938,656,4015,182,3,-44
1974,691,4073,179,21,-33
1988,684,4106,190,48,-35
1922,679,4002,205,80,-38
1864,675,3788,185,101,-31
1827,611,3666,148,84,-21
1807,559,3664,97,45,5
1819,628,3769,57,9,44
1871,816,3871,34,-6,74
1917,939,3873,16,1,64
1903,923,3832,-4,7,39
1893,828,3816,-36,10,23
1859,711,3802,-37,13,18
1829,696,3692,-35,14,40
1831,776,3651,-85,-1,77
1848,866,3663,-117,-31,98
1897,972,3726,-141,-56,105
1974,1044,3751,-160,-73,91
2044,975,3850,-176,-90,59
2054,902,3927,-164,-86,28
2043,877,3892,-191,-65,32
2064,914,3872,-216,-67,48
2109,1064,3826,-219,-83,63
2200,1213,3841,-294,-121,70
2337,1276,4001,-426,-173,65
2449,1264,4263,-503,-212,44
2497,1238,4356,-573,-214,26
2529,1155,4329,-617,-205,5
2541,983,4196,-608,-207,-35
2562,659,4187,-660,-235,-66
2654,434,4331,-702,-259,-45
2684,382,4358,-772,-252,25
2680,397,4354,-866,-232,98
2698,450,4536,-895,-217,127
2653,477,4730,-860,-171,118
2547,425,4873,-775,-88,83
2411,330,4872,-655,29,45
2246,388,4558,-490,143,7
2093,368,4184,-484,220,-9


-33,1777,4648,-331,357,-209
-179,1845,4274,-373,380,-219
-295,1810,3966,-449,348,-252
-325,1637,3910,-523,271,-291
-258,1603,4033,-588,201,-308
-172,1688,4197,-643,167,-330
-164,1661,4190,-681,178,-386
-272,1615,3907,-709,202,-445
-356,1623,3557,-736,189,-513
-363,1495,3438,-760,133,-604
-363,1495,3438,-760,133,-604
-370,1344,3390,-789,84,-681
-362,1121,3171,-861,48,-730
-420,568,2904,-953,-16,-766
-508,200,2769,-979,-110,-755
-497,214,2702,-908,-206,-749
-466,-28,2562,-823,-300,-811
-492,-652,2537,-820,-406,-853
-454,-1050,2815,-804,-517,-794
-377,-1040,3062,-752,-573,-678
-367,-742,3059,-660,-590,-589
-333,-626,2934,-583,-625,-564
-323,-896,2898,-553,-701,-554
-357,-1111,3002,-534,-794,-484
-403,-1000,2947,-484,-874,-383
-306,-898,2946,-443,-978,-328
-57,-1151,3288,-404,-1091,-334
103,-1624,3587,-360,-1144,-323
350,-1904,3917,-299,-1160,-245
667,-2091,4152,-250,-1128,-142
813,-2406,4479,-216,-1074,-29
832,-2413,4847,-101,-967,105
810,-2147,4700,96,-807,202
779,-2119,4390,282,-689,232
712,-2165,4213,379,-645,287
761,-1962,4280,432,-652,388
787,-2003,4425,467,-668,468
834,-2063,4678,518,-675,573
933,-1838,4895,601,-649,698
1003,-1524,4979,683,-595,792
960,-1223,5049,774,-521,841
989,-475,5128,899,-448,874
1096,44,5255,1008,-373,821
1050,-18,5212,1097,-302,744
1079,404,5331,1120,-247,783
1149,1248,5468,1122,-185,805
1113,1708,5398,1079,-107,722
1034,1770,5298,1004,-51,618
947,1760,5144,930,-19,555
843,1694,4971,829,-11,531
750,1792,4995,738,-26,533
828,2443,5302,672,-30,531
893,2960,5480,617,21,435
797,2653,5263,562,94,274
701,2189,5053,475,129,200
683,2197,5053,402,142,211
687,2525,5020,345,167,213
697,2870,4887,253,185,179
738,2951,4876,132,182,112
734,2794,4850,1,183,40
723,2602,4790,-104,189,-16
730,2546,4809,-154,200,-73
754,2523,4747,-181,228,-146
762,2355,4570,-233,257,-227
782,2198,4543,-295,266,-291
772,2018,4544,-357,289,-347
676,1717,4315,-399,318,-394
583,1663,4035,-438,314,-407
550,1678,3904,-487,279,-439
532,1522,3845,-531,238,-498
516,1253,3725,-565,209,-560
541,1027,3696,-595,174,-603
559,846,3640,-612,146,-630
507,683,3539,-643,118,-646
447,647,3498,-657,84,-664
392,548,3421,-658,45,-697
276,261,3172,-677,-3,-722
170,136,3010,-724,-89,-695
148,190,3004,-772,-188,-672
175,-29,3007,-762,-276,-699
175,-29,3007,-762,-276,-699
209,-292,2996,-744,-348,-697
254,-177,2980,-736,-417,-662
274,37,2999,-689,-487,-673
348,26,2947,-706,-555,-716
393,-540,3036,-725,-638,-771
444,-1076,3114,-697,-707,-750
523,-1204,3133,-661,-755,-652
534,-1035,3202,-639,-799,-552
506,-867,3286,-590,-836,-505
491,-984,3242,-466,-869,-538
523,-1386,3229,-384,-912,-563
549,-1602,3279,-334,-965,-511
598,-1481,3479,-297,-1022,-428
767,-1245,3996,-255,-1052,-368
859,-1137,4140,-140,-1007,-354
847,-1252,3961,-62,-956,-327
904,-1340,3866,-34,-965,-257
1053,-1499,4192,-81,-1001,-163
1085,-1455,4606,-97,-987,-45
1130,-1067,4633,-26,-911,44
1197,-872,4444,38,-845,56
1236,-953,4377,86,-824,36
1278,-1042,4485,122,-825,52
1401,-1022,4580,139,-803,99
1448,-1121,4477,157,-761,140
1352,-1139,4239,207,-738,184
1372,-1024,4148,245,-756,222
1482,-1022,4346,276,-785,237
1572,-1108,4534,320,-772,260
1578,-1074,4500,345,-732,323
1616,-925,4439,366,-695,383
1731,-985,4483,405,-675,416
1818,-991,4771,451,-656,479
1876,-647,4958,481,-592,564
1874,-357,4850,556,-499,584
1845,-258,4648,561,-459,581
1878,-254,4871,551,-460,567
1931,-338,5042,560,-415,552
2035,-331,5049,551,-330,568
2112,-233,5043,578,-251,576
2162,-186,5035,662,-170,564
2183,-244,4884,696,-84,568
2262,-368,4916,719,-26,597
2382,-265,5042,785,31,656
2348,-16,4927,852,120,707
2326,385,4841,900,189,728
2415,820,4893,839,241,740
2503,1105,5147,725,308,735
2405,1146,5091,758,396,683
2224,1110,4873,694,483,680
2079,1157,4568,604,542,689
1974,1088,4327,530,559,674
1912,792,4155,475,552,655
1840,740,4177,477,533,685
1776,1298,4081,523,536,720
1857,1746,3940,517,526,669
1858,1617,3982,448,494,563
1781,1507,4126,331,491,519
1648,1599,4027,279,524,490
1499,1520,3725,220,546,434
1368,1139,3642,137,516,385
1215,961,3575,118,476,398
1082,1349,3315,128,428,441
1030,1777,3193,79,334,408
1046,1605,3333,6,224,295
1061,1122,3512,-35,145,219
1106,1035,3609,-53,104,228
1148,1241,3616,-52,83,232
1167,1329,3673,-59,60,184
1167,1329,3673,-59,60,184
1181,1156,3741,-45,46,102
1186,914,3841,-12,38,46
1171,800,3804,13,36,34
1141,757,3728,26,18,37
1178,801,3826,34,-11,29
1208,846,4041,44,-26,5
1242,901,4125,69,-14,-27
1218,768,4044,89,-7,-71
1179,584,3984,75,-17,-91
1229,600,4066,45,-43,-76
1259,623,4175,41,-60,-74
1251,506,4134,40,-58,-88
1264,383,4071,35,-67,-90
1308,453,4172,25,-90,-66
1391,532,4353,16,-100,-56
1472,433,4489,6,-83,-60
1492,367,4419,-1,-41,-45
1457,446,4341,1,-14,-24
1413,532,4307,1,1,-23
1409,620,4339,-2,15,-40
1434,582,4399,22,34,-82
1361,347,4317,40,62,-107
1294,249,4163,52,78,-81
1251,376,4006,54,65,-35
1217,506,3901,-5,28,-6
1233,395,3910,-26,-13,-30
1287,236,4080,-12,-51,-46
1364,301,4195,4,-58,-23
1423,357,4270,4,-42,-5
1405,356,4252,9,-17,6
1357,424,4180,-21,4,31
1307,470,4126,-16,12,33
1252,415,4087,-1,10,24
1221,405,4051,19,6,26
1248,505,4088,2,2,37
1265,494,4183,23,4,18
1245,490,4157,84,23,-2
1254,569,4046,99,40,-6
1218,549,3926,81,34,-9
1197,539,3847,34,10,1
1232,564,3880,-31,-30,20
1276,577,4020,-76,-66,23
1296,552,4141,-92,-78,16
1286,491,4179,-80,-70,6
1262,490,4093,-52,-56,0
1273,408,4109,-88,-51,8
1264,371,4133,-88,-49,26
1269,500,4137,-87,-41,49
1285,547,4216,-75,-34,39


-553,1671,4105,-152,347,-331
-569,1787,4162,-195,318,-390
-588,1844,4095,-251,314,-455
-587,1862,3975,-339,299,-514
-560,1804,3832,-468,272,-561
-580,1479,3669,-619,237,-604
-706,1220,3448,-774,200,-596
-824,1427,3163,-877,147,-571
-888,1673,2715,-965,68,-623
-925,1340,2387,-1077,-59,-743
-934,639,2348,-1181,-213,-826
-883,65,2338,-1236,-351,-818
-877,-419,2374,-1298,-466,-748
-917,-635,2451,-1331,-559,-647
-879,-628,2466,-1321,-623,-578
-871,-710,2515,-1272,-675,-586
-854,-849,2469,-1187,-708,-631
-820,-1249,2430,-1071,-763,-715
-749,-1762,2691,-923,-836,-767
-655,-1892,2954,-694,-875,-742
-565,-1682,2935,-448,-903,-690
-456,-1644,3008,-275,-959,-654
-242,-2001,3032,-159,-1017,-608
-88,-2485,3126,-175,-1101,-485
23,-2589,3497,-201,-1182,-309
23,-2589,3497,-201,-1182,-309
129,-2487,3596,-138,-1191,-182
324,-2561,3556,-19,-1198,-131
537,-2799,3769,88,-1224,-103
728,-2899,4085,210,-1222,-51
887,-3028,4334,310,-1177,13
908,-3095,4646,382,-1105,114
890,-2844,4848,510,-1007,242
857,-2376,4883,607,-892,354
839,-1799,4878,671,-807,433
829,-1547,4868,712,-758,463
841,-1575,4987,714,-734,498
862,-1472,5136,755,-702,572
825,-1069,5196,756,-647,664
712,-523,5200,758,-596,713
649,-162,5342,768,-542,702
602,-271,5083,835,-489,649
532,-345,5070,840,-497,675
574,40,5440,786,-501,769
586,334,5440,730,-447,822
606,547,5400,676,-399,848
644,843,5488,688,-356,833
687,1064,5607,698,-299,782
757,1000,5651,695,-212,724
790,1006,5616,752,-127,691
795,1429,5574,819,-50,678
809,2047,5554,822,21,631
847,2303,5640,830,81,514
850,2454,5642,831,147,422
817,2876,5503,746,210,378
764,3122,5281,597,251,309
741,2974,5126,450,259,219
698,2739,5044,311,262,165
659,2827,4857,194,274,144
664,2825,4752,91,272,80
574,2664,4717,-3,277,5
469,2809,4459,-37,303,-63
412,2734,4111,-62,310,-201
354,2123,3848,-137,284,-337
260,1635,3706,-218,237,-376
267,1621,3595,-298,186,-354
256,1541,3507,-376,135,-368
225,1532,3569,-430,78,-398
265,1701,3678,-433,41,-461
297,1501,3589,-389,26,-588
280,1003,3460,-365,-6,-682
232,846,3328,-424,-58,-679
216,864,3377,-516,-129,-667
220,699,3377,-537,-187,-703
271,377,3356,-532,-244,-744
311,90,3447,-515,-300,-749
303,230,3507,-472,-342,-715
377,664,3534,-449,-373,-706
394,670,3589,-394,-404,-797
374,298,3564,-305,-426,-909
342,-171,3419,-272,-449,-954
342,-398,3296,-263,-498,-919
374,-362,3253,-300,-569,-846
473,-401,3330,-351,-646,-799
543,-643,3397,-344,-706,-783
544,-903,3284,-338,-753,-751
579,-1008,3237,-364,-817,-687
593,-1034,3353,-411,-890,-621
579,-1054,3480,-423,-943,-568
598,-1092,3513,-385,-984,-538
621,-1217,3753,-320,-1022,-529
678,-1462,3922,-195,-1021,-527
766,-1707,4022,-92,-1013,-485
872,-1699,4249,-6,-1007,-382
872,-1699,4249,-6,-1007,-382
931,-1436,4411,84,-971,-268
1035,-1234,4413,124,-925,-183
1112,-1264,4542,110,-903,-118
1169,-1136,4694,121,-874,-37
1272,-815,4720,152,-828,24
1340,-716,4561,218,-792,15
1418,-854,4522,241,-794,13
1503,-974,4723,219,-798,62
1498,-994,4669,276,-769,118
1547,-1036,4671,317,-753,174
1600,-1021,4749,316,-725,251
1569,-833,4604,359,-679,308
1657,-746,4729,410,-652,314
1672,-939,4851,485,-597,309
1538,-985,4457,560,-518,358
1470,-993,4133,581,-505,418
1522,-985,4350,591,-545,483
1603,-597,4698,605,-541,581
1682,-2,4591,672,-488,633
1726,241,4514,705,-472,613
1747,220,4716,645,-470,604
1825,298,4891,605,-429,619
1951,444,4981,598,-365,618
2106,436,5122,562,-290,606
2187,455,5224,549,-200,607
2174,352,5125,556,-99,609
2083,253,4879,574,-21,622
2096,240,4756,550,24,653
2085,98,4836,502,56,680
2133,264,5023,466,121,745
2093,591,4846,569,201,745
2033,739,4790,559,253,738
2037,901,4885,499,300,751
2025,920,4889,429,373,755
1959,864,4719,407,449,750
1873,972,4572,352,505,763
1797,1203,4460,314,543,751
1693,1269,4171,325,569,701
1667,1325,4120,330,540,653
1672,1492,4378,267,519,633
1638,1531,4432,255,552,588
1552,1377,4211,246,596,541
1481,1371,4100,194,601,548
1411,1615,3946,172,594,558
1397,1797,3694,127,572,520
1418,1662,3714,49,510,438
1473,1357,4039,-35,472,391
1462,1348,4072,-79,505,400
1327,1597,3665,-60,540,401
1212,1676,3355,1,494,320
1143,1397,3370,-34,408,224
1069,1093,3496,-88,342,186
1071,1027,3561,-115,298,194
1044,1054,3553,-125,264,198
1012,1141,3450,-137,232,187
988,1109,3424,-150,177,144
971,891,3441,-153,127,88
957,596,3428,-158,82,61
960,448,3492,-155,33,73
973,403,3595,-143,-3,88
1004,458,3703,-112,-30,97
1097,627,3908,-77,-51,88
1154,702,4093,-52,-50,47
1174,695,4166,-18,-29,-1
1173,659,4127,12,-11,-41
1140,587,4111,15,-9,-58
1143,511,4107,23,-22,-59
1168,482,4189,12,-41,-45
1200,513,4330,4,-49,-31
1200,513,4330,4,-49,-31
1233,563,4400,0,-36,-22
1226,625,4383,-1,-16,-24
1200,589,4299,7,-2,-44
1170,408,4220,4,0,-61
1159,290,4246,-12,-9,-40
1145,307,4300,-19,-11,-5
1123,405,4289,-4,0,12
1119,485,4182,25,6,0
1134,403,4210,4,2,-24
1123,264,4290,0,3,-36
1086,228,4192,20,16,-28
1087,226,4129,31,13,-14
1099,222,4133,34,-2,6
1130,358,4228,13,-11,33
1156,502,4315,11,-5,38
1153,532,4325,18,4,28
1130,561,4308,52,19,18
1131,577,4104,43,29,12
1151,514,4165,-5,6,13
1152,541,4257,-2,-2,16
1168,623,4237,11,9,11
1191,563,4216,23,21,-14
1184,466,4208,13,33,-25
1158,460,4206,6,43,-11
1095,483,4168,3,48,2
1033,498,4018,15,48,3
1017,519,3918,14,19,0
1033,582,4031,5,-21,-3
1049,589,4084,7,-40,-15
1064,513,4047,-6,-49,-25
1112,368,4104,-32,-62,-22
1138,290,4176,-46,-62,5
1135,379,4152,-60,-49,45
1123,477,4100,-71,-43,57
1107,447,4106,-66,-44,38


-741,1731,4174,-140,307,-400
-776,1662,4190,-217,261,-451
-781,1719,4158,-307,233,-477
-812,1571,4041,-400,209,-521
-827,1326,3958,-484,176,-537
-838,1407,3826,-564,141,-511
-824,1551,3675,-636,103,-521
-804,1409,3517,-716,61,-580
-800,1242,3467,-801,7,-621
-745,1146,3450,-857,-36,-653
-699,975,3389,-904,-65,-688
-727,738,3269,-940,-90,-711
-811,520,2999,-963,-129,-718
-936,271,2708,-1006,-202,-711
-983,214,2523,-1030,-312,-682
-862,237,2420,-1052,-441,-688
-794,-181,2428,-1056,-566,-758
-810,-634,2384,-981,-675,-808
-763,-738,2457,-827,-790,-835
-611,-778,2864,-619,-870,-888
-461,-1133,2783,-422,-882,-963
-289,-1565,2803,-297,-941,-957
-89,-1703,3172,-263,-1010,-832
33,-1763,3495,-319,-1015,-658
55,-1755,3489,-402,-975,-476
-51,-1756,3320,-460,-960,-337
-156,-1670,3293,-431,-990,-259
-89,-1701,3522,-290,-1026,-258
7,-2080,3673,-93,-1019,-291
108,-2454,3677,99,-997,-256
223,-2637,3619,228,-985,-140
386,-2802,3701,320,-988,-6
551,-2797,3991,376,-985,153
681,-2457,4146,416,-932,310
733,-2083,3979,454,-886,405
816,-1940,4135,424,-882,426
886,-2296,4456,415,-868,426
886,-2296,4456,415,-868,426
946,-2491,4710,463,-818,502
987,-2314,4792,533,-749,620
1059,-2117,4881,635,-683,697
1143,-1972,5171,784,-617,735
1218,-1706,5313,929,-518,782
1173,-1410,5298,1004,-408,847
1064,-839,5183,1136,-325,898
987,-83,5085,1240,-282,906
912,376,5180,1213,-263,886
887,827,5510,1190,-244,876
914,1321,5711,1201,-191,853
904,1629,5795,1159,-131,835
805,2003,5975,1053,-54,849
747,2698,5760,967,37,851
705,2941,5482,866,84,756
650,2869,5581,742,84,664
649,3374,5742,652,114,625
677,3891,5570,586,177,501
657,3580,5352,482,216,302
594,3053,5337,374,225,180
616,3269,5442,269,247,166
623,3504,5370,141,295,119
501,3335,5152,-13,338,41
438,3400,5084,-138,356,-18
403,3320,5021,-187,381,-142
363,2890,4707,-240,418,-277
304,2634,4424,-297,419,-357
213,2477,4003,-372,392,-433
171,2046,3713,-464,320,-532
259,1653,3872,-528,224,-600
351,1500,4014,-575,187,-631
344,1322,3815,-613,189,-666
275,1158,3519,-635,165,-705
226,953,3313,-650,110,-759
191,831,3241,-666,42,-805
177,725,3062,-725,-23,-843
122,439,2950,-798,-111,-879
68,202,2814,-830,-205,-899
-8,-6,2669,-883,-303,-900
-24,-138,2603,-973,-419,-893
-32,-501,2735,-982,-533,-906
3,-796,2824,-920,-617,-882
78,-905,2779,-819,-694,-838
173,-947,2754,-741,-782,-799
257,-1059,2762,-664,-881,-786
314,-1279,2798,-602,-963,-783
382,-1469,2881,-531,-1037,-772
510,-1652,3018,-443,-1101,-753
585,-1840,3130,-357,-1147,-703
594,-1967,3324,-264,-1196,-624
619,-1896,3487,-100,-1228,-550
672,-1837,3651,9,-1239,-486
697,-1801,3769,70,-1230,-416
755,-1644,3707,163,-1222,-347
893,-1589,3631,232,-1236,-296
1050,-1729,3862,223,-1279,-237
1208,-1615,4540,191,-1300,-114
1325,-1268,5017,235,-1211,-15
1351,-1159,4931,335,-1066,8
1339,-1199,4759,418,-962,28
1331,-1201,4438,472,-908,74
1439,-1374,4306,475,-919,121
1537,-1629,4560,422,-949,208
1529,-1418,4528,415,-922,336
1588,-1228,4306,458,-898,375
1712,-1460,4432,592,-922,337
1782,-1543,4542,741,-915,359
1837,-1373,4562,792,-866,440
1869,-1187,4494,822,-803,514
1869,-1187,4494,822,-803,514
1820,-972,4406,843,-757,580
1952,-582,4725,842,-734,646
2187,-95,5261,870,-668,684
2209,185,5433,851,-528,691
2149,260,5111,865,-385,671
2132,103,4746,895,-335,640
2226,14,4817,901,-346,640
2435,-72,5066,952,-320,618
2657,-110,5316,1006,-235,620
2826,-39,5521,1034,-90,654
2827,43,5433,1034,82,728
2813,583,5432,913,239,873
2827,1257,5306,942,386,900
2748,1255,5295,908,508,842
2731,1272,5465,804,650,848
2664,1434,5436,715,819,878
2467,1513,5245,632,989,898
2210,1592,4893,648,1131,902
1822,1853,4111,821,1209,861
1572,2103,3671,875,1161,780
1533,2143,3687,816,1059,675
1449,2048,3605,687,982,612
1394,2088,3475,533,899,607
1394,2073,3571,384,803,582
1317,1890,3664,231,749,547
1217,1788,3630,85,731,547
1147,1866,3522,-30,710,554
1013,1966,3473,-79,670,531
778,2186,3093,25,619,465
722,2237,2796,69,493,356
839,1998,3039,-21,316,253
927,1674,3455,-117,194,196
1001,1506,3689,-162,152,187
1041,1454,3688,-181,150,180
1021,1327,3594,-191,150,143
942,1098,3470,-206,131,105
913,885,3481,-210,86,85
943,754,3586,-185,43,71
969,667,3677,-165,13,59
1004,635,3819,-138,-9,47
1050,690,3935,-85,-13,30
1089,766,3998,-47,-12,10
1101,779,4026,-35,-10,-13
1080,696,4028,-37,-12,-30
1029,644,4076,-53,-28,-26
994,651,4125,-33,-46,-20
989,621,4065,-15,-53,-24
1010,617,4088,-19,-75,-21
1128,712,4258,-4,-103,-18
1322,752,4502,13,-99,-38
1379,642,4632,-2,-54,-55
1280,600,4493,3,5,-45
1229,662,4248,36,37,-38
1205,596,4217,22,23,-45
1164,557,4285,-21,6,-30
1114,600,4276,-36,4,-7
1080,619,4196,-16,1,-14
1053,570,4136,-29,-10,-23
1057,503,4164,-44,-32,-17
1089,505,4264,-35,-49,-5
1149,565,4329,-25,-39,0
1183,549,4324,-30,-17,-9
1195,477,4313,-38,1,-10
1203,476,4265,-36,14,5
1207,569,4226,-52,26,25
1200,579,4214,-49,31,13
1175,463,4116,-32,37,-4
1138,368,4045,-48,26,13
1138,379,4093,-50,-1,48
1138,379,4093,-50,-1,48
1157,493,4132,-54,-15,86
1166,611,4190,-91,-21,111
1148,700,4243,-102,-19,115
1095,757,4201,-103,-6,104
1065,723,4147,-108,7,81
1040,652,4060,-104,6,65
1049,672,4062,-140,-9,83
1069,674,4078,-176,-21,92
1056,598,4087,-194,-29,81
1038,543,4098,-187,-33,75
1053,521,4121,-160,-37,68
1048,515,4086,-142,-37,61
1039,464,4064,-173,-38,69
1035,433,4061,-179,-51,74
1035,464,4084,-177,-63,83
1063,528,4130,-186,-73,86
1090,602,4161,-190,-79,81
1110,614,4204,-197,-79,66
1140,571,4214,-202,-74,48
1126,511,4171,-223,-67,50
1101,502,4124,-244,-73,63
1126,530,4168,-250,-90,74


-146,559,4251,565,166,-126
-86,716,4416,555,186,-103
-34,918,4590,523,225,-91
-15,1059,4741,474,275,-87
-161,1213,4818,401,328,-72
-305,1498,4756,332,374,-54
-401,1579,4656,296,396,-88
-401,1579,4656,296,396,-88
-472,1514,4551,263,396,-130
-492,1518,4501,230,371,-151
-488,1572,4572,188,338,-179
-500,1750,4588,126,323,-203
-508,1777,4522,52,313,-251
-518,1602,4504,-25,297,-308
-529,1522,4512,-98,294,-328
-521,1596,4434,-168,308,-338
-550,1566,4271,-264,315,-362
-657,1573,4094,-364,303,-373
-705,1742,4006,-427,276,-398
-699,1757,3881,-487,253,-466
-747,1556,3756,-546,225,-549
-795,1408,3642,-584,187,-596
-776,1329,3442,-620,146,-633
-756,1139,3324,-673,94,-672
-748,1057,3245,-744,34,-676
-764,926,3046,-854,-26,-672
-804,589,2863,-984,-110,-678
-820,400,2834,-1046,-218,-678
-753,377,2787,-1015,-315,-718
-649,1,2866,-940,-398,-818
-585,-555,2852,-836,-460,-879
-545,-711,3001,-729,-528,-845
-505,-298,3245,-652,-567,-758
-480,127,3138,-637,-583,-737
-469,-47,2954,-682,-619,-808
-436,-624,2782,-738,-687,-865
-395,-1108,2778,-754,-797,-855
-401,-1283,2907,-730,-902,-781
-378,-1402,3018,-619,-964,-719
-354,-1608,3029,-475,-1016,-687
-369,-1925,3160,-365,-1055,-644
-329,-2237,3169,-168,-1068,-604
-188,-2460,3085,46,-1101,-550
15,-2406,3408,104,-1147,-438
186,-2201,3683,123,-1142,-332
307,-2210,3658,149,-1118,-258
439,-2331,3850,122,-1124,-177
493,-2582,4109,67,-1110,-84
457,-2732,4148,136,-1074,7
506,-2607,4292,237,-1047,113
655,-2457,4345,331,-1004,203
743,-2365,4310,377,-967,299
816,-2209,4552,371,-955,408
897,-2068,4931,412,-918,478
937,-2090,4964,476,-824,521
914,-2415,4677,532,-743,573
856,-2602,4684,630,-708,669
931,-2301,4730,772,-673,800
958,-1531,5002,837,-636,919
1028,-647,5082,956,-577,931
1018,-562,5059,1067,-535,836
954,-881,4923,1041,-511,830
922,-692,5136,942,-521,954
967,-313,5213,966,-493,1028
971,-129,5432,1038,-434,1042
1012,272,5500,1163,-334,1062
1171,717,5487,1289,-248,1055
1173,1134,5648,1329,-165,1039
1191,2221,5956,1291,-48,1056
1300,3358,5850,1298,84,939
1206,3236,5530,1188,181,692
1053,2684,5504,1012,211,557
971,2766,5577,875,241,563
857,3303,5388,765,283,573
810,3714,5155,635,295,511
794,3570,5108,501,277,390
733,3373,5098,344,266,309
695,3577,5088,226,270,262
695,3577,5088,226,270,262
720,3975,5131,154,290,167
723,4015,5007,57,334,7
655,3570,4715,-80,371,-154
514,3100,4471,-225,373,-249
381,2904,4273,-329,356,-293
300,2842,3966,-405,323,-340
282,2634,3744,-510,261,-411
286,2257,3760,-624,188,-479
266,1988,3737,-672,148,-537
228,1779,3497,-660,120,-605
217,1525,3277,-638,56,-669
254,1400,3164,-696,-27,-702
289,1214,3227,-749,-115,-749
330,979,3281,-715,-179,-820
407,743,3307,-718,-222,-878
432,428,3414,-696,-247,-940
362,225,3365,-659,-249,-966
275,313,3145,-628,-262,-965
302,302,2823,-605,-320,-1005
348,-231,2743,-591,-429,-1076
345,-669,2911,-553,-539,-1069
377,-679,3049,-479,-613,-1000
383,-702,2906,-458,-656,-928
389,-809,2768,-473,-731,-863
406,-951,2860,-512,-839,-802
377,-1079,3083,-542,-932,-743
425,-996,3285,-521,-980,-681
602,-986,3193,-431,-995,-680
763,-1412,3141,-361,-1032,-708
847,-1824,3396,-353,-1068,-658
918,-1831,3477,-343,-1070,-531
873,-1312,3527,-231,-1070,-404
950,-856,3496,-180,-1059,-361
1018,-1116,3421,-170,-1092,-406
1041,-1501,3723,-186,-1162,-388
1094,-1561,4212,-164,-1185,-298
1061,-1366,4345,-73,-1135,-212
1182,-1234,4403,15,-1075,-168
1336,-1504,4444,127,-1026,-153
1350,-1646,4240,215,-982,-48
1443,-1378,4094,225,-978,112
1578,-1127,4198,202,-1004,211
1671,-1095,4435,211,-1018,245
1758,-1025,4585,260,-993,266
1866,-982,4710,300,-943,276
1897,-1053,4804,340,-878,288
1876,-891,4757,363,-808,346
1915,-706,4753,380,-756,372
1976,-855,4992,437,-713,351
2016,-1080,4988,530,-628,362
2029,-1345,4684,544,-546,433
2005,-1590,4600,536,-517,538
2081,-1354,4717,589,-497,660
2266,-839,4929,772,-446,691
2357,-473,4843,1000,-390,643
2483,-65,5068,1043,-338,637
2639,202,5305,1022,-234,630
2678,101,5189,1017,-102,607
2667,-92,5005,992,5,633
2598,-41,5003,949,91,711
2489,309,4914,919,190,790
2362,677,4579,853,269,845
2244,906,4319,701,277,886
2181,900,4315,595,240,875
2137,638,4453,569,212,842
2135,414,4598,540,229,861
2138,554,4646,536,287,907
2170,931,4635,524,369,927
2135,1256,4650,538,445,898
2135,1256,4650,538,445,898
2165,1617,4632,511,521,875
2187,1857,4434,431,592,832
2118,1889,4249,304,631,773
2027,1861,4249,263,639,704
1892,1953,4104,323,649,630
1842,2079,4028,327,643,562
1759,2085,3898,349,623,488
1639,2035,3615,340,578,434
1558,1873,3562,223,502,404
1467,1698,3651,122,439,384
1406,1603,3648,73,407,381
1389,1584,3629,24,387,381
1337,1542,3582,-24,371,370
1259,1647,3467,-113,349,383
1249,1762,3537,-238,318,380
1164,1736,3484,-250,287,312
1037,1519,3268,-243,245,221
1000,1239,3278,-272,167,150
1058,965,3495,-275,97,96
1085,652,3572,-218,64,46
1138,431,3573,-180,36,36
1237,365,3707,-169,6,60
1313,455,3840,-150,-4,80
1366,563,3896,-113,1,66
1393,549,3926,-95,8,30
1402,389,3996,-83,14,2
1393,290,4064,-70,26,9
1423,426,4128,-74,40,45
1440,651,4067,-34,56,48
1390,685,3929,-8,51,6
1327,509,3973,-20,18,-36
1255,363,3944,-3,-10,-52
1265,340,3954,2,-50,-44
1311,367,4094,1,-88,-36
1380,327,4204,9,-100,-46
1407,249,4264,8,-97,-40
1490,306,4366,2,-88,-3
1557,414,4441,2,-63,19
1542,484,4443,-1,-24,17
1510,556,4391,0,10,6
1502,579,4316,-4,36,-4
1453,517,4278,-35,52,-8
1397,464,4327,-61,64,0
1306,422,4298,-43,83,0
1224,435,3987,-17,106,-7
1201,374,3839,-26,75,-18
1194,193,3906,-22,17,-29
1205,60,3932,-25,-15,-4
1257,91,3931,-33,-41,42
1345,229,4053,-40,-66,76
1419,426,4220,-40,-64,87


-594,2480,3978,-267,554,-387
-788,2438,3435,-389,509,-440
-829,2378,3267,-536,380,-493
-846,2158,3432,-705,244,-544
-856,2061,3508,-865,165,-557
-813,1933,3416,-995,117,-576
-826,1728,3254,-1104,66,-604
-814,1448,3113,-1193,4,-638
-775,864,3102,-1243,-55,-687
-811,210,3000,-1239,-90,-698
-892,-20,2861,-1187,-126,-649
-881,316,2864,-1099,-186,-599
-835,487,3045,-1019,-246,-637
-828,596,3233,-965,-281,-689
-841,616,3177,-960,-293,-734
-898,311,3048,-992,-333,-774
-898,-45,2940,-995,-408,-770
-899,-313,2919,-1001,-509,-720
-838,-276,3128,-975,-614,-643
-743,-103,3146,-864,-670,-623
-697,-32,3054,-738,-722,-656
-607,-122,3009,-583,-787,-719
-538,-597,2797,-539,-866,-768
-491,-1127,3016,-560,-977,-733
-406,-1141,3375,-517,-1040,-626
-413,-1002,3429,-475,-1048,-549
-533,-912,3252,-445,-1062,-518
-569,-983,3233,-404,-1126,-531
-501,-1377,3466,-384,-1201,-546
-483,-1862,3718,-415,-1234,-479
-457,-2080,3841,-277,-1241,-377
-292,-2119,3844,-35,-1220,-297
-133,-2253,3670,126,-1198,-222
13,-2443,3672,191,-1217,-115
151,-2459,3874,208,-1238,10
207,-2455,3902,204,-1230,132
229,-2320,3750,200,-1234,269
392,-2153,3817,215,-1279,355
553,-2282,4119,247,-1324,382
768,-2296,4539,371,-1328,421
1026,-2130,4745,524,-1265,477
1159,-1762,4915,614,-1177,568
1263,-1298,4887,660,-1075,654
1368,-1048,5000,608,-1024,712
1387,-719,5537,588,-973,784
1415,-303,5771,681,-860,810
1317,-342,5514,774,-735,764
1187,-493,5411,803,-670,768
1183,-432,5252,841,-621,819
1183,-432,5252,841,-621,819
1216,-352,5285,864,-600,870
1317,-112,5486,853,-567,936
1393,371,6034,816,-502,1002
1495,819,6321,891,-336,1012
1524,1062,5988,1017,-136,960
1453,1087,5635,1061,7,904
1371,1094,5538,1041,103,879
1242,1725,5579,979,204,911
1134,2911,5193,928,308,884
1056,3305,4705,842,315,697
956,2786,4803,685,242,501
916,2539,5175,618,214,417
904,3184,5392,590,260,409
971,4115,5312,550,337,334
934,4357,4925,425,383,146
878,3974,4824,240,372,-41
829,3406,4644,67,351,-153
621,3048,4409,-117,315,-174
508,3000,4039,-234,261,-169
501,2864,3869,-364,175,-198
567,2807,4020,-473,91,-251
639,2655,3912,-532,58,-338
621,2286,3649,-581,20,-437
595,1991,3614,-659,-31,-509
596,1671,3674,-694,-57,-586
577,1336,3597,-643,-58,-669
538,1237,3428,-584,-62,-728
484,1104,3126,-579,-90,-787
397,790,2835,-584,-171,-838
388,607,2842,-590,-297,-858
516,583,3038,-592,-417,-870
624,426,3077,-544,-503,-914
677,128,3081,-459,-586,-961
716,8,3205,-405,-666,-967
753,136,3473,-341,-725,-966
796,212,3548,-292,-739,-985
736,19,3286,-328,-743,-990
704,-355,2967,-405,-790,-966
627,-655,2991,-427,-893,-919
599,-738,3164,-352,-989,-882
700,-903,3320,-295,-1046,-863
742,-1208,3340,-268,-1078,-822
767,-1417,3420,-289,-1109,-717
892,-1488,3658,-258,-1133,-606
954,-1549,3794,-162,-1117,-529
1017,-1516,3745,-61,-1077,-454
1105,-1444,3659,-14,-1053,-378
1160,-1403,3691,-28,-1064,-299
1206,-1430,3885,40,-1087,-237
1292,-1539,4059,69,-1075,-165
1350,-1711,4109,106,-1046,-82
1381,-1729,4202,170,-1028,31
1470,-1352,4454,233,-999,165
1602,-1014,4524,323,-930,227
1658,-1036,4534,420,-869,227
1687,-917,4513,497,-811,270
1769,-555,4327,530,-760,326
1920,-405,4360,544,-753,322
2033,-717,4538,545,-743,306
2001,-1005,4614,554,-703,359
1934,-891,4612,600,-639,452
1959,-631,4671,661,-572,509
2025,-401,4618,724,-516,527
2028,-248,4467,716,-477,553
2058,-166,4481,720,-449,568
2215,-374,4249,865,-463,551
2377,-548,4361,907,-516,609
2556,-429,4786,916,-504,709
2694,173,5096,964,-384,783
2812,792,5113,1059,-205,744
2812,792,5113,1059,-205,744
2800,889,4913,1200,-42,617
2691,739,4704,1176,81,577
2592,830,4577,858,168,691
2489,1118,4733,582,232,786
2292,1040,4649,665,303,749
2223,1041,4557,661,365,752
2261,1261,4634,519,428,792
2274,1317,4546,397,497,815
2313,1496,4564,295,549,863
2391,1924,4600,246,605,893
2409,2220,4266,199,683,855
2354,2187,3890,149,696,772
2331,1882,4120,78,637,699
2228,1702,4383,-1,642,696
2061,1822,4140,-6,707,721
1947,1922,3787,59,715,679
1814,1862,3690,24,669,615
1721,1773,3692,-101,622,591
1664,1666,3651,-172,583,568
1530,1552,3414,-146,540,522
1388,1541,3153,-128,458,488
1375,1566,3138,-132,342,447
1412,1466,3299,-177,241,387
1433,1273,3511,-230,191,335
1413,1139,3552,-210,179,304
1387,1122,3519,-169,164,284
1402,1178,3555,-163,145,273
1393,1240,3601,-168,134,253
1346,1223,3530,-164,128,214
1289,1116,3487,-143,98,163
1314,923,3588,-141,55,124
1329,742,3772,-135,30,113
1345,779,3825,-109,35,115
1347,868,3768,-49,40,88
1373,813,3725,-34,26,46
1392,711,3785,-50,-2,20
1428,763,3877,-28,-28,11
1486,812,3997,13,-48,-11
1522,729,4037,8,-50,-32
1559,663,4079,-7,-54,-26
1621,637,4175,-19,-61,-11
1628,518,4214,-31,-51,-4
1584,477,4092,-45,-35,19
1614,536,4076,-77,-43,49
1647,540,4183,-86,-51,49
1629,485,4192,-74,-39,35
1608,454,4135,-35,-23,20
1571,465,4032,-14,-21,14
1582,493,4058,-59,-31,28
1597,497,4148,-76,-38,32
1588,496,4172,-59,-30,30
1613,525,4129,-22,-15,16
1661,507,4170,-28,-6,-1
1683,456,4241,1,10,-26
1655,427,4178,29,40,-26
1581,440,4097,8,57,2
1501,497,4020,-3,56,21
1475,504,4001,-20,39,27
1437,443,4000,-39,25,27
1426,406,4006,-53,10,36
1449,411,4041,-55,-1,47
1476,451,4068,-54,-9,56
1508,539,4142,-51,-9,58
1554,648,4151,-43,8,47
1591,592,4144,-37,25,12
1538,479,4154,-18,34,-9
1544,574,4111,-36,45,17
1577,655,4165,-67,47,29
1577,655,4165,-67,47,29
1522,619,4171,-56,58,5
1456,555,4069,-50,74,-4
1434,515,3935,-30,69,-12
1437,446,3928,-35,46,-17
1385,310,3984,-5,25,-26
1350,250,3872,4,22,-12
1390,258,3859,-20,7,18
1421,317,3912,-22,-13,42
1466,426,3996,-34,-22,66
1521,516,4065,-29,-14,65


-479,2192,3996,-339,195,-394
-564,2095,3744,-381,179,-494
-634,1969,3462,-449,134,-565
-684,1858,3342,-578,54,-594
-674,1883,3385,-735,-32,-591
-617,1845,3393,-883,-101,-606
-596,1459,3324,-1013,-153,-647
-566,1070,3307,-1058,-207,-668
-523,906,3368,-1010,-259,-665
-540,864,3350,-968,-290,-663
-593,811,3203,-915,-313,-684
-569,783,3029,-842,-356,-735
-438,403,3002,-803,-423,-828
-372,-343,3059,-745,-491,-908
-391,-857,3107,-669,-546,-875
-424,-831,3109,-611,-600,-759
-438,-596,3015,-636,-657,-642
-364,-584,3055,-685,-745,-581
-341,-809,3256,-746,-837,-523
-297,-1036,3716,-786,-908,-433
-297,-1036,3716,-786,-908,-433
-289,-1165,3850,-650,-897,-356
-317,-1133,3790,-470,-863,-290
-193,-1030,3916,-281,-843,-259
-21,-1076,4097,-130,-796,-265
-21,-1149,4071,-30,-727,-256
-136,-1094,3738,43,-680,-220
-157,-1020,3506,48,-700,-168
-102,-998,3642,-2,-776,-100
-10,-1123,3843,0,-847,-60
64,-1495,4012,27,-884,-24
75,-1735,4112,102,-892,65
144,-1643,4106,190,-885,192
274,-1539,4076,229,-870,291
326,-1559,4176,239,-864,367
322,-1312,4298,293,-844,455
383,-951,4487,406,-810,486
417,-780,4624,485,-754,475
447,-794,4475,553,-696,467
451,-1045,4436,543,-683,495
466,-1359,4564,536,-681,582
542,-1326,4597,589,-663,717
716,-983,4682,625,-639,837
906,-584,5116,716,-608,874
1071,-200,5504,882,-505,833
1114,-150,5506,1048,-346,772
1071,22,5394,1165,-211,791
1078,782,5313,1202,-107,863
1038,1641,5127,1161,-19,879
958,2097,4854,1073,12,800
871,1964,4812,961,-8,684
833,1779,4942,905,-30,619
793,1785,4902,848,-16,618
812,1979,4773,796,-15,638
896,2035,4802,711,-37,651
932,1977,4889,609,-43,675
913,2290,5028,537,-20,717
988,3368,5202,494,41,710
1111,3987,5165,454,139,508
1063,3305,5127,403,219,215
871,2824,5049,366,300,91
733,3027,4633,347,372,62
660,3126,4290,267,355,9
647,2918,4300,107,278,-24
634,2684,4459,-46,217,-12
610,2757,4443,-156,195,19
612,3057,4484,-226,183,6
602,3252,4523,-268,188,-87
677,3209,4517,-345,212,-214
726,2804,4598,-408,242,-345
613,2438,4348,-443,291,-415
467,2358,3860,-520,300,-426
359,2221,3622,-630,230,-454
283,1881,3534,-720,141,-503
239,1533,3440,-777,52,-538
270,1516,3493,-809,-31,-548
395,1602,3582,-815,-92,-593
458,1250,3512,-814,-132,-688
464,888,3503,-802,-166,-749
528,803,3551,-740,-183,-781
519,585,3462,-656,-182,-836
449,377,3309,-561,-188,-864
394,289,3174,-490,-224,-860
270,148,2989,-485,-282,-838
164,2,2877,-485,-379,-808
174,27,3060,-471,-493,-770
279,169,3291,-390,-564,-764
381,118,3282,-285,-606,-810
501,-95,3385,-309,-641,-815
581,-163,3555,-314,-665,-780
543,-150,3570,-337,-657,-728
543,-150,3570,-337,-657,-728
449,-101,3371,-413,-667,-681
409,-233,3454,-472,-729,-648
337,-421,3370,-510,-768,-619
299,-727,3208,-523,-836,-603
343,-989,3202,-464,-953,-582
488,-1057,3432,-379,-1062,-552
623,-1034,3678,-284,-1119,-525
716,-970,3806,-168,-1133,-508
813,-948,3700,22,-1131,-531
929,-1206,3513,71,-1146,-540
1072,-1500,3761,34,-1206,-491
1224,-1526,4202,71,-1235,-405
1281,-1460,4388,156,-1189,-322
1236,-1505,4343,241,-1127,-244
1250,-1586,4240,320,-1099,-148
1298,-1545,4379,346,-1095,-8
1357,-1226,4625,366,-1064,158
1453,-654,4755,459,-989,268
1577,-72,4666,577,-904,280
1719,21,4700,644,-853,202
1730,-226,4889,721,-812,136
1697,-361,4823,817,-739,156
1688,-410,4549,788,-677,245
1708,-490,4515,702,-674,346
1789,-639,4670,654,-676,443
1873,-745,4886,642,-644,540
1912,-633,5130,635,-574,643
2027,-276,5232,689,-463,716
2173,185,5103,720,-340,744
2261,243,5082,712,-236,704
2370,103,5229,761,-139,666
2393,47,5027,870,-11,680
2326,294,4511,920,59,757
2328,719,4410,901,49,819
2421,916,4634,830,22,823
2441,915,4889,810,47,797
2381,1169,4958,862,124,776
2402,1736,4989,847,226,758
2572,2164,4809,815,335,666
2667,2062,4875,730,409,562
2590,1915,4841,624,487,569
2510,1929,4639,471,556,652
2356,1955,4349,276,608,719
2143,2005,4060,94,620,750
2039,2031,4073,47,601,721
1948,1930,3929,103,602,655
1782,1826,3675,123,596,619
1688,1918,3675,91,558,620
1551,2231,3487,142,532,601
1511,2483,3213,156,491,529
1604,2378,3305,44,416,430
1579,2175,3645,-77,374,371
1473,2126,3609,-101,400,342
1271,1931,3228,-124,425,303
1101,1668,2941,-143,376,273
1119,1587,2929,-127,279,266
1172,1639,3087,-118,189,263
1255,1695,3321,-148,129,246
1297,1597,3466,-150,111,199
1256,1425,3448,-139,113,156
1183,1313,3395,-116,104,126
1139,1163,3314,-73,80,85
1143,1016,3360,-55,37,63
1180,1042,3587,-39,0,61
1236,1185,3732,15,-6,42
1273,1308,3775,48,-2,10
1326,1277,3829,45,-11,-29
1337,1117,3951,11,-21,-50
1337,1117,3951,11,-21,-50
1328,1070,4043,-11,-23,-41
1345,1126,4091,-2,-20,-37
1357,1103,4034,0,-16,-43
1363,981,3982,-27,-28,-44
1402,924,4093,-52,-55,-26
1465,950,4232,-55,-59,-16
1462,906,4236,-40,-36,-32
1420,867,4183,-21,-15,-53
1430,921,4126,-2,-11,-64
1451,805,4168,0,-13,-91
1396,664,4185,2,-8,-90
1398,786,4196,-2,-5,-42
1437,946,4228,-3,-3,-14
1416,975,4197,-22,5,-12
1416,985,4160,-39,11,-12
1472,949,4188,-45,13,-28
1479,767,4168,-46,29,-51
1414,629,4101,-38,49,-49
1378,646,3990,-16,61,-30
1381,700,3971,-12,59,-15
1367,744,3989,-9,54,-13
1281,780,3888,36,56,-37
1242,760,3841,61,41,-65
1271,700,3885,61,14,-73
1304,627,3968,39,-4,-52
1303,655,4051,28,-7,-11
1328,768,3989,30,0,23
1346,846,3972,15,-3,38
1368,848,3958,3,-7,37
1384,846,4030,-23,-12,49
1459,992,4122,-35,-4,72
1475,1055,4117,-36,21,56
1372,990,3997,-55,48,35
1298,908,3811,-62,47,24
1274,800,3801,-52,11,16
1286,794,3877,-45,-12,24
1305,891,3889,-64,-19,44
1337,927,3910,-82,-30,55
1310,842,3932,-106,-30,60


-664,2846,3941,-137,369,-398
-668,2859,3866,-284,357,-445
-678,2818,3701,-444,342,-484
-748,2574,3336,-614,316,-523
-856,2264,2971,-804,241,-538
-886,2182,2990,-972,123,-524
-839,2078,3168,-1072,31,-559
-837,1797,3142,-1133,-12,-615
-807,1718,3007,-1200,-46,-642
-755,1579,2927,-1271,-100,-691
-812,1137,2817,-1358,-164,-743
-903,786,2784,-1413,-234,-754
-932,537,2912,-1353,-302,-774
-954,308,2851,-1252,-339,-787
-969,329,2851,-1177,-394,-754
-975,440,2803,-1154,-459,-717
-1026,237,2624,-1197,-545,-694
-1042,-20,2709,-1180,-661,-659
-1020,-122,2801,-1118,-761,-611
-961,-93,2884,-1062,-837,-573
-827,-116,2985,-975,-905,-585
-738,-300,3110,-930,-967,-603
-725,-382,3301,-870,-1012,-592
-718,-260,3411,-787,-1038,-562
-683,-177,3482,-700,-1049,-559
-658,-470,3457,-617,-1061,-589
-659,-991,3316,-561,-1093,-575
-594,-1286,3455,-541,-1163,-457
-508,-1395,3716,-449,-1214,-329
-413,-1601,4007,-377,-1225,-223
-259,-1804,4214,-298,-1197,-112
-84,-2130,4360,-238,-1146,11
-70,-2387,4335,-158,-1082,155
-3,-2254,4194,-33,-1023,299
130,-2052,4174,136,-991,362
233,-2021,4295,228,-960,400
327,-2148,4483,336,-920,444
389,-2212,4521,429,-866,543
500,-2039,4717,467,-821,701
514,-1783,4757,492,-757,850
461,-1578,4634,521,-706,961
471,-1526,4671,625,-683,1008
521,-1473,4822,768,-662,1047
711,-1063,5138,922,-616,1097
878,-574,5468,1091,-519,1107
989,176,5678,1233,-378,1110
1075,1016,5675,1359,-230,1071
1018,1652,5502,1407,-106,996
845,2072,5441,1395,-31,913
687,2447,5308,1346,16,854
612,2573,5133,1194,32,821
552,2519,5227,1037,13,812
469,2742,5299,914,23,828
438,3234,5208,850,54,806
409,3577,5080,814,72,709
333,3694,5073,785,83,577
307,3972,5000,715,107,470
399,4119,5015,610,129,354
510,4022,5079,478,157,247
507,4062,5121,282,214,206
442,4383,4829,114,286,162
333,4275,4290,-23,316,23
333,4275,4290,-23,316,23
217,3642,4068,-104,274,-154
145,3303,3856,-166,217,-251
216,3126,3688,-285,145,-310
333,2804,3857,-420,62,-363
405,2627,4067,-538,29,-385
402,2654,3967,-611,46,-423
291,2444,3715,-636,51,-522
211,2023,3527,-635,26,-629
209,1747,3535,-615,-18,-700
130,1699,3456,-607,-53,-743
84,1688,3285,-631,-95,-794
68,1357,3127,-620,-169,-875
75,1007,3062,-594,-270,-923
189,705,3084,-586,-371,-935
313,326,3230,-600,-461,-918
335,332,3426,-618,-517,-851
306,557,3419,-573,-537,-829
315,546,3292,-483,-559,-890
338,328,3195,-377,-605,-964
401,-25,3334,-292,-675,-1003
369,-246,3466,-224,-724,-978
313,-254,3356,-250,-726,-895
242,-308,3120,-250,-750,-846
202,-598,3067,-238,-824,-820
196,-836,2947,-276,-908,-746
312,-911,2949,-288,-1030,-649
422,-938,3414,-239,-1148,-584
421,-1085,3685,-218,-1173,-526
478,-1078,3567,-169,-1155,-443
603,-830,3595,-45,-1169,-373
659,-779,3644,100,-1196,-352
626,-841,3583,197,-1224,-314
629,-666,3520,251,-1274,-232
751,-363,3840,252,-1344,-153
912,-148,4289,300,-1360,-124
1001,-121,4318,345,-1307,-105
1018,-215,4200,336,-1273,-59
1058,-268,4313,312,-1274,6
1177,-390,4397,286,-1253,63
1313,-649,4595,281,-1227,111
1398,-789,4771,326,-1172,188
1442,-788,4747,373,-1088,292
1481,-685,4665,413,-1019,402
1551,-413,4786,426,-981,499
1728,-169,5076,450,-927,542
1855,-15,5204,479,-831,551
2006,21,5321,475,-736,555
2109,-201,5208,486,-636,550
2137,-422,4989,509,-560,591
2258,-409,4931,583,-519,641
2400,-420,5058,682,-469,663
2472,-302,5081,748,-382,702
2450,1,5027,818,-278,731
2412,316,4932,891,-176,723
2428,359,4789,993,-107,687
2410,414,4882,986,-54,724
2389,777,4967,972,41,791
2414,1003,4747,898,160,830
2374,1329,4750,870,227,860
2294,1813,4805,821,304,876
2235,1945,4649,782,396,848
2170,1896,4363,760,438,834
2189,2077,4512,640,447,867
2258,2281,4753,531,499,856
2255,2222,4883,517,597,786
2147,2010,4817,511,740,729
1989,1782,4495,527,884,705
1907,1610,4424,511,977,726
1677,1883,4282,559,1066,795
1677,1883,4282,559,1066,795
1464,2788,3483,648,1125,854
1433,3299,2726,584,1022,779
1356,3023,2641,330,794,648
1388,2625,3222,96,579,577
1533,2481,3726,-19,497,556
1523,2360,3585,-45,518,523
1417,2217,3297,-64,517,491
1442,2156,3341,-38,461,450
1488,2108,3485,-72,428,417
1387,2321,3333,-74,428,386
1328,2547,3042,-62,397,306
1259,2309,3037,-108,311,178
1170,1752,3267,-198,239,99
1047,1379,3313,-168,209,84
922,1310,3068,-137,187,120
861,1369,2954,-122,115,151
919,1377,3130,-126,19,159
1021,1338,3444,-150,-36,161
1097,1434,3685,-138,-46,156
1129,1595,3725,-107,-22,111
1146,1562,3704,-64,-12,19
1168,1323,3758,-43,-18,-60
1214,1085,3828,-48,-26,-81
1269,1076,3997,-79,-31,-40
1328,1265,4209,-99,-16,-1
1261,1334,4187,-82,23,-15
1138,1231,3929,-64,49,-46
1092,1074,3803,-76,20,-53
1103,993,3904,-63,-37,-40
1169,1039,4044,-28,-80,-24
1302,1094,4171,-1,-96,-27
1384,1055,4258,3,-89,-41
1400,1023,4286,12,-70,-43
1398,1040,4263,17,-47,-33
1393,1060,4231,26,-26,-33
1391,1067,4196,39,-8,-43
1409,1111,4174,33,6,-42
1446,1215,4256,-4,22,-33
1410,1271,4352,-26,52,-35
1272,1229,4126,-7,93,-58
