acc_X,acc_Y,acc_Z,gyro_X,gyro_Y,gyro_Z
-353,-1961,2266,-128,-674,479
-284,-2040,2190,-60,-780,587
-188,-1770,2331,153,-856,594
-44,-1405,2657,439,-877,489
41,-1005,2919,722,-850,342
177,-747,3072,867,-819,239
177,-747,3072,867,-819,239
268,-987,3108,894,-819,227
310,-1128,2982,813,-857,384
398,-866,3118,709,-956,608
494,-523,3434,690,-1047,756
494,-214,3675,747,-1071,797
561,164,3791,860,-1062,757
697,205,3872,923,-1052,680
792,192,4034,924,-1053,660
874,359,4226,885,-1060,700
944,506,4397,826,-1058,750
981,921,4680,780,-1039,775
1000,1478,4939,783,-996,719
1024,1596,5063,770,-931,598
1081,1630,5235,752,-872,506
1103,1695,5345,716,-812,471
1067,1672,5340,649,-756,477
1030,1724,5256,551,-721,521
1039,1945,5196,425,-712,570
1095,2269,5321,320,-722,559
1168,2377,5565,254,-713,471
1218,2094,5675,199,-659,372
1189,1824,5621,129,-584,348
1184,1883,5514,68,-514,366
1177,2018,5489,18,-461,346
1173,2335,5592,-6,-402,282
1220,2452,5531,-22,-323,150
1270,2244,5500,-36,-254,16
1270,2221,5522,-59,-183,-47
1220,2354,5361,-92,-105,-91
1129,2419,5013,-136,-50,-156
1060,2298,4690,-185,-47,-230
1041,2117,4567,-247,-81,-275
1017,1995,4552,-289,-116,-296
1003,1980,4488,-306,-119,-312
1014,2086,4408,-305,-115,-341
1037,2240,4326,-287,-108,-400
1072,2306,4322,-277,-94,-485
1072,2253,4350,-294,-48,-589
981,2187,4120,-303,18,-687
912,2141,3686,-372,56,-765
790,1948,3390,-495,12,-826
691,1713,3367,-580,-80,-863
723,1514,3348,-634,-165,-886
846,1266,3310,-669,-237,-910
978,1083,3376,-687,-299,-914
1067,1078,3503,-687,-338,-906
1129,1088,3615,-680,-350,-919
1169,914,3605,-693,-345,-951
1280,576,3626,-750,-349,-972
1373,163,3725,-820,-362,-957
1397,-204,3773,-881,-368,-902
1341,-427,3866,-908,-369,-844
1312,-583,3943,-883,-360,-813
1288,-736,4119,-802,-350,-817
1304,-882,4171,-706,-304,-842
1391,-1162,3805,-621,-305,-862
1556,-1551,4159,-619,-389,-835
1673,-1942,4729,-627,-405,-728
1827,-2068,4966,-552,-340,-573
1966,-2094,5011,-499,-251,-424
2032,-2054,5084,-429,-185,-313
2152,-2017,5303,-349,-143,-222
2257,-2156,5602,-307,-79,-136
2204,-2393,5725,-289,20,-25
2072,-2321,5746,-239,132,117
1940,-1950,5780,-101,244,207
1828,-1460,5861,85,367,198
1738,-999,5940,267,509,112
1595,-721,5873,386,667,10
1595,-721,5873,386,667,10
1403,-594,5741,447,791,-56
1257,-414,5710,489,865,-71
1184,-190,5786,526,924,-57
1122,30,5821,491,998,-12
1047,253,5605,385,1086,60
918,68,5420,67,1150,186
1073,473,5569,57,1157,286
775,490,5234,2,1209,317
648,-63,4963,-279,1264,411
683,353,4918,-95,1257,462
710,599,4860,121,1271,395
590,544,4637,139,1334,326
429,635,4232,173,1371,267
251,628,3766,133,1352,215
138,476,3416,103,1278,162
161,372,3269,145,1169,109
145,273,3111,175,1073,60
21,153,3111,187,981,46
-55,326,3316,232,935,85
-124,623,3076,262,956,97
-246,633,2575,301,949,40
-386,409,2099,275,857,3
-446,274,1823,179,686,40
-404,358,1671,115,477,90
-316,497,1663,14,261,129
-176,605,1752,-63,60,127
-25,466,1780,-95,-106,83
91,183,1734,-166,-262,74
196,37,1885,-260,-409,116
249,124,2199,-278,-524,145
247,135,2296,-247,-571,130
206,108,2201,-218,-611,110
229,235,2290,-189,-681,89
276,337,2457,-89,-754,12
308,301,2654,-41,-822,-49
330,326,2865,-41,-882,-73
342,298,2966,-73,-935,-75
324,188,2988,-98,-1002,-64
314,69,2964,-121,-1083,-30
364,-43,2937,-139,-1178,10
494,-164,2979,-170,-1281,62
529,-236,3094,-220,-1366,123
512,-79,3315,-220,-1434,157
582,306,3796,-112,-1473,104
657,685,4018,46,-1440,-19
702,805,3985,173,-1401,-184
831,538,3892,169,-1405,-302
1067,-17,3910,67,-1452,-309
1195,-428,4104,-5,-1515,-199
1299,-352,4388,-46,-1544,-23
1485,134,4711,-15,-1535,84
1729,639,5198,0,-1446,102
1803,796,4255,-111,-1355,41
1791,504,4321,-224,-1509,-50
1951,-95,4957,-330,-1592,-63
1970,-441,5443,-284,-1536,-11
1902,-6,5729,-119,-1390,64
1892,608,5715,20,-1209,47
1955,684,5595,135,-1060,-84
2011,136,5340,141,-951,-190
2140,-554,4971,68,-879,-158
2173,-724,4785,62,-897,-25
2208,-61,5123,120,-959,94
2363,646,5677,102,-922,76
2408,553,5777,1,-764,-43
2415,258,5655,-60,-610,-116
2492,118,5547,-77,-506,-113
2555,173,5506,-98,-448,-75
2555,173,5506,-98,-448,-75
2646,116,5584,-107,-404,-55
2765,-119,5662,-108,-340,-21
2811,-197,5721,-94,-251,61
2787,-185,5702,-66,-124,144
2704,-128,5562,-8,18,196
2607,26,5393,56,153,222
2528,289,5271,119,269,211
2530,365,5111,56,379,172
2544,272,5154,5,479,119
2450,270,5028,110,562,46
2347,128,4966,74,648,37
2265,26,4882,56,723,56
2209,-57,4772,40,779,96
2114,-100,4651,12,820,152
2020,-177,4436,-8,847,201
1967,-115,4377,-37,836,263
2019,291,4449,84,785,282
2048,465,4486,73,753,243
2006,495,4532,26,736,177
1863,453,4512,-65,736,135
1680,389,4447,-148,738,105
1549,308,4472,-168,726,78
1448,254,4429,-171,727,52
1276,241,4243,-280,743,54
1094,320,3993,-480,740,76
992,340,3742,-673,692,65
937,281,3668,-783,604,20
908,174,3624,-757,489,-38
977,-15,4101,-683,369,-101
1007,-53,4554,-216,321,-215
1140,-361,4074,-466,445,-145
1045,-523,4060,-671,496,-19
919,-374,3926,-512,465,41
872,-257,3984,-458,433,111
874,-58,4070,-345,414,127
902,61,4188,-254,430,91
884,74,4223,-116,472,12
798,-52,4052,17,523,-82
732,-333,3928,32,559,-143
707,-520,3863,94,568,-156
726,-618,3789,214,567,-143
784,-671,3789,314,554,-105
892,-612,3758,363,544,-31
979,-488,3752,303,539,73
995,-372,3711,280,524,159
972,-323,3622,319,505,198
857,-268,3523,376,479,206
774,-285,3520,462,426,198
769,-276,3590,604,360,184
735,-75,3681,634,332,176
713,123,3789,628,327,140
720,287,3798,691,309,74
749,347,3780,663,289,15
856,224,3806,539,274,-37


-520,1499,3499,-975,347,-206
-456,1767,3554,-922,215,-279
-429,1590,3923,-790,65,-461
-438,1038,4287,-727,-2,-601
-503,658,4475,-692,10,-609
-525,643,4454,-572,58,-568
-525,678,4254,-512,103,-518
-505,620,4229,-545,109,-458
-543,638,4320,-592,97,-387
-531,693,4310,-658,113,-309
-597,747,4415,-707,131,-263
-614,734,4477,-647,164,-269
-644,692,4395,-539,199,-290
-652,723,4341,-392,207,-325
-581,685,4368,-240,188,-383
-507,547,4336,-225,175,-401
-374,408,4414,-230,166,-385
-252,341,4647,-130,159,-378
-243,392,4699,-75,202,-346
-281,439,4604,-197,276,-267
-347,358,4400,-319,328,-208
-509,156,4098,-413,334,-152
-618,42,4056,-473,280,-79
-726,270,4130,-441,212,-25
-732,608,4191,-417,175,-11
-738,771,4294,-366,146,-82
-662,622,4221,-337,138,-181
-660,196,3990,-413,129,-213
-784,-115,3803,-550,84,-137
-836,-34,3602,-659,15,-10
-837,-45,3319,-726,-71,45
-898,-424,2944,-791,-180,54
-851,-798,2635,-870,-328,117
-769,-892,2470,-929,-493,224
-625,-951,2368,-921,-642,299
-555,-1252,2110,-902,-770,335
-545,-1573,1936,-885,-905,384
-451,-1535,2072,-694,-1057,394
-229,-1307,2243,-450,-1169,346
45,-1228,2427,-363,-1240,294
320,-1267,2907,-342,-1306,293
464,-1407,3368,-302,-1315,349
436,-1780,3267,-300,-1248,467
323,-1872,2970,-265,-1213,638
262,-1435,3010,-165,-1255,788
305,-840,3195,-18,-1304,833
420,-628,3421,112,-1331,777
484,-479,3719,287,-1348,709
603,-211,3961,404,-1333,673
702,-8,4184,416,-1305,643
779,156,4495,410,-1279,618
861,296,4799,430,-1234,592
892,489,4977,394,-1172,595
963,746,5165,305,-1114,616
963,746,5165,305,-1114,616
1001,1114,5491,234,-1071,623
1042,1555,5908,217,-1014,585
1165,1710,6127,223,-918,487
1203,1442,6140,143,-811,402
1157,1136,6197,22,-724,405
1002,1155,6157,-76,-634,454
796,1429,5731,-88,-586,466
782,1402,6932,44,-577,390
832,1395,6416,38,-244,355
688,2084,5143,75,-150,285
652,2390,5105,-16,-279,93
724,1907,5831,-87,-376,-116
833,1873,6281,-73,-319,-207
938,2139,6276,-38,-176,-274
950,2181,6141,1,-33,-379
790,2118,5940,34,87,-462
604,2061,5555,58,177,-516
444,1957,5083,66,213,-556
327,1821,4675,92,178,-577
299,1725,4370,75,111,-577
360,1726,4224,-7,37,-579
471,1862,4202,-76,-25,-611
605,1854,4184,-117,-67,-699
663,1481,4090,-168,-86,-805
661,1112,3956,-235,-97,-852
659,959,3762,-260,-115,-864
659,816,3694,-287,-150,-872
782,826,3737,-375,-171,-890
875,599,3749,-402,-177,-964
964,297,3772,-355,-185,-1014
1073,-29,3868,-323,-182,-1032
1124,-470,3868,-295,-153,-1020
1130,-882,3723,-287,-117,-962
1129,-1255,3590,-300,-121,-875
1144,-1489,3607,-328,-161,-756
1249,-1428,3817,-314,-214,-645
1429,-1414,4077,-251,-242,-606
1632,-1612,4345,-166,-239,-611
1740,-1897,4647,-108,-206,-590
1722,-1952,4979,-91,-141,-515
1713,-1699,5221,-62,-48,-438
1674,-1620,5365,-43,49,-411
1605,-1959,5333,-79,151,-385
1530,-2281,5338,-114,228,-287
1466,-2197,5486,-65,292,-151
1394,-1963,5542,34,386,-48
1312,-1736,5495,130,490,20
1260,-1608,5475,204,589,79
1222,-1396,5445,341,684,129
1186,-1018,5496,424,796,185
1079,-447,5524,514,924,220
868,231,5340,637,1060,195
683,607,4998,685,1176,99
504,527,4554,711,1235,-18
202,269,4015,718,1211,-67
-36,138,3586,665,1108,-23
-169,199,3386,606,963,35
-196,391,3367,544,820,88
-130,578,3386,483,708,114
-6,620,3334,421,639,105
0,556,3192,312,584,109
-83,566,2932,187,530,144
-217,598,2572,104,457,153
-346,564,2232,38,342,129
-344,490,2033,-10,183,97
-273,370,1953,-41,0,67
-173,263,1996,-62,-177,70
-26,251,2093,-85,-339,94
152,270,2203,-122,-478,125
152,270,2203,-122,-478,125
352,224,2357,-137,-594,137
564,113,2568,-129,-674,133
709,-21,2759,-110,-709,138
706,-38,2875,-100,-717,176
567,54,2817,-150,-703,237
422,119,2601,-159,-716,246
285,149,2377,-113,-793,200
278,248,2527,-97,-935,154
399,470,2953,-10,-1082,91
628,623,3407,43,-1168,27
830,603,3729,88,-1188,-30
996,384,3782,59,-1168,-40
1155,-17,3790,-58,-1163,16
1205,-244,3913,-228,-1178,151
1128,-14,4048,-347,-1191,299
1088,465,4206,-358,-1190,347
1055,658,4323,-223,-1180,236
1135,631,4547,-31,-1170,88
1166,353,4312,37,-1093,-12
1065,103,3389,49,-1202,-34
1172,-25,3931,-128,-1440,40
1377,-339,4550,-205,-1532,93
1519,-509,5104,-171,-1492,159
1645,-124,5379,-30,-1333,226
1812,374,5175,136,-1129,198
1857,593,4932,216,-1001,105
1897,659,4938,191,-955,36
1999,452,4800,81,-934,0
1974,-36,4573,-33,-966,10
1906,-185,4746,-231,-1003,112
1842,137,5073,-292,-987,172
1817,388,5211,-79,-939,109
1934,522,5281,169,-877,24
2007,497,5127,206,-793,-27
2002,497,4913,30,-732,-29
2041,396,4923,-91,-730,-41
2113,252,5156,-103,-726,-35
2194,424,5459,-129,-667,19
2238,675,5547,-153,-539,43
2196,762,5414,-138,-395,10
2137,680,5150,-92,-276,-45
2110,511,4924,-68,-207,-88
2113,329,4772,-58,-179,-100
2109,192,4657,-55,-172,-79
2119,142,4565,-47,-175,-45
2189,164,4556,-20,-182,-16
2294,190,4596,-31,-166,4
2316,141,4623,-71,-118,23
2228,121,4554,-91,-58,47
2139,215,4437,-85,-4,67
2080,225,4280,-60,36,51
1969,159,4156,-47,62,23
1906,135,4005,-35,76,0
1875,37,3909,-39,77,-19
1830,0,3874,-29,68,-28
1830,44,3840,-12,58,-30
1878,1,3801,-13,52,-39
1913,-106,3780,-42,43,-35
1889,-140,3803,-82,35,0
1862,-11,3882,-86,25,42
1883,144,3911,-72,24,58
1909,142,3911,-62,29,43
1887,64,3898,-57,32,25
1845,45,3875,-65,33,34
1831,103,3882,-65,31,47
1827,185,3884,-32,24,32
1836,197,3884,-8,24,-5
1904,129,3907,9,18,-45
2002,12,3943,9,14,-60
2078,-85,3996,-16,17,-34
2078,-85,3996,-16,17,-34
2065,-87,4069,-51,30,12
2001,32,4063,-64,57,55
1943,165,3972,-49,81,63
1907,228,3901,-30,84,42


-770,-195,3190,-329,-488,261
-792,-243,3061,-376,-603,320
-748,-287,3002,-427,-720,343
-621,-303,3261,-467,-845,342
-414,-258,3612,-380,-928,309
-414,-258,3612,-380,-928,309
-303,-218,3911,-267,-938,270
-221,-87,4028,-187,-890,246
-154,7,4136,-165,-823,240
-97,177,4216,-130,-775,249
-50,387,4293,-152,-730,265
-9,396,4324,-201,-682,262
-111,175,4267,-190,-643,246
-269,24,3998,-142,-620,273
-390,-56,3501,-183,-643,336
-389,-312,3103,-269,-757,390
-365,-331,3141,-398,-942,467
-307,-112,3516,-462,-1116,523
-86,-46,4205,-392,-1173,504
112,-334,3952,-265,-1105,429
136,-420,3867,-180,-1116,396
170,-179,4075,-179,-1134,421
259,-66,4204,-153,-1114,408
339,-120,4242,-88,-1101,373
478,-237,4304,-82,-1091,382
574,-293,4416,-83,-1082,429
629,-242,4571,-88,-1068,497
643,-79,4677,-50,-1028,539
581,185,4729,37,-976,528
553,411,4754,149,-931,469
638,509,4669,257,-888,385
733,336,4798,304,-868,303
816,363,4901,257,-845,288
861,620,5064,199,-852,292
932,805,5447,140,-842,259
947,970,5891,114,-777,207
996,1193,6137,125,-662,150
1095,1274,6229,132,-531,86
1097,1290,6285,115,-409,43
1019,1365,6178,84,-293,35
913,1369,5895,53,-198,23
790,1341,5690,46,-146,-5
732,1489,5584,79,-117,-43
730,1701,5497,125,-89,-108
856,1738,5335,151,-57,-208
980,1460,5208,155,-32,-311
963,1461,5248,143,-9,-338
1002,1912,5221,120,38,-339
1042,2138,5038,47,96,-408
968,1951,4809,-68,130,-493
872,1736,4586,-174,132,-531
772,1508,4323,-236,118,-557
636,1274,4131,-275,81,-573
607,1251,4114,-288,34,-579
607,1312,3996,-277,1,-611
589,1299,3911,-283,-31,-675
595,1174,3901,-334,-69,-743
669,988,3898,-407,-89,-792
760,787,3897,-455,-96,-833
820,527,3962,-520,-93,-858
796,299,4001,-602,-75,-834
689,246,3998,-647,-52,-794
621,219,3881,-623,-34,-781
584,148,3728,-613,-38,-799
619,-15,3672,-625,-78,-833
750,-448,3673,-601,-129,-868
849,-782,3777,-568,-180,-848
942,-921,3940,-540,-211,-790
1037,-1065,4086,-531,-219,-726
1145,-1251,4197,-532,-218,-653
1263,-1570,4305,-526,-213,-584
1369,-1900,4461,-516,-203,-489
1436,-2085,4658,-490,-171,-375
1479,-2149,4770,-390,-118,-287
1479,-2149,4770,-390,-118,-287
1500,-2202,4869,-291,-65,-220
1522,-2247,4968,-209,-18,-160
1593,-2327,5160,-139,18,-115
1607,-2417,5447,-72,69,-70
1545,-2466,5795,9,150,-20
1462,-2397,6049,138,272,40
1419,-2178,6111,311,428,94
1365,-1744,6099,488,582,135
1255,-1161,6099,594,713,167
1190,-663,6124,667,837,154
1060,-491,6077,677,962,125
865,-447,5928,629,1087,152
626,-337,5565,562,1189,239
320,-134,5120,523,1239,325
122,202,4783,512,1238,380
11,562,4526,565,1209,358
-150,779,4316,617,1170,273
-229,864,4055,610,1137,182
-225,747,3681,588,1097,101
-198,558,3546,537,1031,52
-203,517,3497,510,975,51
-294,671,3161,453,942,92
-332,863,2663,375,870,115
-326,882,2350,294,724,89
-336,777,2160,240,557,49
-344,600,1839,182,395,31
-274,380,1604,94,213,34
-99,337,1601,30,21,55
162,351,1670,7,-124,52
347,290,1698,-9,-237,30
469,243,1689,-71,-337,43
539,125,1747,-147,-443,66
513,-101,1707,-203,-542,100
474,-314,1648,-247,-650,156
441,-439,1701,-259,-779,207
385,-430,1913,-214,-905,235
340,-279,2141,-107,-1005,222
259,-34,2381,0,-1072,170
226,232,2614,121,-1125,89
301,441,2731,219,-1178,12
488,356,2931,219,-1253,-47
653,72,3289,100,-1337,-35
739,2,3714,-35,-1387,71
814,85,3751,-163,-1399,185
861,245,3787,-232,-1467,239
946,341,4088,-281,-1546,226
990,301,4409,-287,-1580,160
1009,330,4724,-255,-1572,92
1121,369,5153,-173,-1527,12
1280,277,5291,-50,-1416,-71
1366,18,5102,13,-1297,-105
1447,-112,5353,-4,-1224,-49
1587,28,4958,-85,-1117,37
1584,445,4659,-130,-1217,71
1593,727,5507,-193,-1313,46
1617,576,6003,-147,-1225,-32
1660,392,6112,8,-1069,-83
1713,108,5890,80,-894,-70
1641,-65,5287,82,-783,6
1629,63,5046,41,-782,101
1641,171,5054,59,-794,111
1603,266,5117,248,-808,70
1792,720,5391,292,-774,49
1921,985,5428,212,-674,-31
1995,815,5293,85,-582,-115
2075,267,5150,-74,-529,-132
2076,-203,5052,-228,-510,-46
2035,-275,5013,-311,-509,87
2040,-105,5008,-332,-511,182
2040,-105,5008,-332,-511,182
2119,43,5086,-305,-495,200
2212,79,5145,-234,-441,151
2260,63,5177,-164,-352,87
2243,84,5241,-82,-241,15
2205,162,5303,9,-114,-52
2188,180,5231,84,18,-106
2161,83,4956,135,142,-140
2130,-113,4635,103,222,-126
2068,-275,4414,16,252,-57
1968,-282,4285,-76,251,47
1911,-106,4212,-140,234,150
1869,70,4095,-178,223,198
1823,-74,4195,-381,232,239
1710,27,4174,-250,250,208
1641,200,3921,-56,258,118
1580,69,3970,-72,259,67
1515,39,3961,15,253,22
1429,19,3904,72,255,-2
1351,-12,3797,104,254,-19
1291,-25,3722,119,238,-20
1269,37,3703,132,204,-11
1318,104,3743,127,168,-7
1434,113,3817,97,140,-7
1508,105,3923,70,131,-6
1469,117,3961,60,139,-4
1402,170,3900,55,153,-5
1378,215,3806,48,155,-15
1395,200,3746,41,135,-41
1400,131,3765,23,97,-60
1412,94,3808,-4,53,-51
1424,68,3846,-42,10,-22
1474,37,3887,-73,-23,0
1567,16,3954,-76,-47,11
1636,23,4047,-68,-50,14
1696,86,4182,-53,-34,17
1706,182,4272,-21,-2,12
1661,234,4288,-8,44,1
1612,236,4200,-7,89,-15
1590,146,4065,-17,115,-35
1566,23,3935,-31,116,-49
1556,-79,3929,-40,85,-41
1565,-67,4015,-37,44,-12
1610,16,4111,-29,18,16
1631,75,4168,-21,13,17
1612,75,4154,-11,26,-4
1600,2,4145,0,42,-34
1585,-73,4140,18,61,-53
1545,-69,4138,37,77,-46
1571,52,4169,63,90,-30
1598,172,4178,71,102,-24
1572,234,4160,54,118,-33
1522,236,4090,50,120,-58
1487,145,4080,37,101,-82
1454,21,4050,23,85,-90
1444,-79,3996,1,70,-71


-615,-131,3324,-145,-520,179
-606,-316,3285,-146,-570,154
-546,-411,3519,-121,-633,153
-532,-293,3739,-57,-642,161
-555,-37,3779,6,-613,160
-527,92,3702,45,-593,138
-462,-146,3626,38,-604,109
-394,-513,3702,-10,-643,138
-381,-600,3948,-40,-672,237
-394,-367,4114,-34,-661,343
-424,-49,4099,2,-633,388
-477,123,3991,62,-629,352
-483,94,3937,115,-656,296
-358,21,3908,149,-690,259
-161,-52,4057,124,-731,237
-104,-216,4452,132,-744,259
2,-20,4347,79,-686,342
-24,-142,3978,98,-673,348
-37,-507,3896,102,-715,365
-39,-746,4093,126,-717,431
-77,-518,3636,239,-702,510
-96,7,3418,269,-771,561
-115,258,3530,243,-858,519
-30,105,3688,247,-930,434
106,-197,3920,239,-981,403
227,-368,4143,255,-999,426
348,-335,4317,294,-988,482
348,-335,4317,294,-988,482
422,-145,4486,340,-953,537
434,223,4648,455,-896,538
433,725,4761,627,-831,466
470,1143,4774,721,-769,359
566,1132,4799,691,-733,257
720,745,4792,546,-726,237
817,246,4786,329,-748,338
815,-30,4821,157,-767,514
693,179,4893,92,-757,672
563,791,5007,197,-699,711
479,1363,4696,334,-622,591
516,1353,4569,440,-632,382
627,1057,4926,468,-669,234
761,1159,5386,462,-649,196
865,1514,5624,443,-562,187
879,1839,5676,428,-456,148
804,1974,5604,398,-362,87
781,1902,5381,344,-288,40
795,1835,5292,258,-256,25
769,2057,5442,189,-239,28
749,2383,5489,161,-190,-5
707,2580,5387,145,-127,-91
725,2696,5201,139,-77,-200
783,2663,5051,66,-54,-305
813,2543,4955,-66,-45,-367
816,2495,4906,-206,-48,-385
833,2371,4750,-348,-42,-392
842,2193,4609,-471,-41,-395
850,2082,4455,-546,-44,-404
878,2028,4343,-611,-48,-426
893,1991,4339,-659,-48,-470
867,1943,4331,-680,-30,-530
792,1855,4214,-675,0,-609
710,1567,3857,-667,21,-691
657,1107,3480,-711,0,-739
673,771,3440,-773,-76,-735
730,681,3607,-799,-152,-713
773,626,3725,-807,-176,-713
800,586,3772,-777,-179,-733
866,426,3759,-753,-177,-773
897,212,3850,-751,-184,-798
877,161,4019,-713,-179,-810
889,134,4022,-667,-145,-839
905,-50,3949,-627,-117,-883
921,-284,3887,-630,-119,-908
894,-641,3888,-634,-139,-902
883,-896,3957,-624,-166,-850
924,-1070,4004,-600,-194,-780
1000,-1261,4109,-566,-230,-705
1067,-1449,4217,-504,-255,-633
1174,-1549,4349,-468,-270,-548
1317,-1586,4606,-441,-271,-477
1399,-1675,4881,-397,-231,-430
1408,-1809,4989,-321,-153,-386
1435,-1845,5006,-247,-75,-321
1464,-1863,5054,-209,-18,-251
1470,-1863,5171,-189,25,-178
1457,-1873,5258,-135,85,-116
1364,-1932,5232,-50,154,-58
1293,-1876,5200,27,211,23
1256,-1582,5208,128,257,95
1212,-1206,5270,229,304,126
1182,-903,5349,307,367,116
1164,-759,5496,381,440,88
1097,-648,5531,460,536,77
935,-465,5420,491,639,95
733,-234,5252,443,723,142
567,-114,5076,387,771,174
442,-97,4901,347,790,203
442,-97,4901,347,790,203
376,-83,4749,301,786,249
325,47,4703,256,768,306
259,377,4753,225,759,347
223,721,4795,235,773,326
166,923,4755,279,799,248
86,923,4507,271,837,164
0,733,4293,234,838,95
-79,509,4097,235,815,51
-108,331,3897,198,782,70
-144,390,3744,210,735,115
-218,663,3585,226,691,139
-229,852,3250,248,633,101
-136,625,2932,215,534,26
-50,296,2870,130,400,0
7,211,2927,60,274,39
88,322,2967,21,193,76
196,381,2893,18,144,69
243,335,2840,-2,104,47
160,411,2794,7,62,26
121,505,2628,8,7,0
148,367,2452,-39,-74,-30
219,108,2425,-94,-194,-39
303,-104,2632,-141,-317,-8
329,-29,2838,-151,-399,49
356,92,2883,-136,-436,71
348,95,2925,-112,-475,46
365,68,3018,-63,-529,15
392,65,3034,-55,-583,6
410,-28,3126,-115,-652,10
423,-148,3468,-144,-723,13
378,-60,3787,-101,-736,20
325,138,3821,-9,-701,6
322,349,3845,60,-670,-35
333,406,3573,96,-681,-88
460,344,3664,49,-762,-105
597,195,3953,-72,-839,-66
721,176,4230,-191,-879,13
812,148,4357,-243,-886,66
802,-5,4411,-266,-874,90
779,-123,4411,-193,-853,91
815,-227,4356,-87,-825,78
819,-215,4416,3,-794,71
815,-12,4391,127,-751,44
853,149,4251,194,-720,4
907,268,4338,178,-725,-25
951,324,4488,167,-732,-42
1022,341,4615,136,-705,-39
977,242,3874,45,-727,-15
985,13,4048,-63,-898,37
1040,-377,4582,-187,-970,110
1049,-305,4808,-141,-922,177
1127,152,4829,56,-828,173
1291,624,4745,241,-743,84
1421,642,4657,256,-682,-36
1429,341,4573,177,-659,-100
1470,119,4573,37,-660,-56
1449,-149,4555,-90,-662,23
1374,-415,4388,-170,-661,128
1305,-401,4304,-197,-669,240
1222,-4,4414,-125,-674,274
1162,439,4480,4,-647,205
1190,704,4442,116,-616,63
1360,633,4451,156,-602,-80
1475,273,4332,116,-610,-156
1560,28,4463,29,-663,-121
1639,-17,4766,-39,-677,-26
1612,67,4908,-66,-631,69
1586,361,4880,-42,-556,121
1626,573,4658,-28,-482,90
1626,573,4658,-28,-482,90
1637,346,4471,-5,-470,15
1696,314,4769,46,-509,-6
1805,382,4823,48,-472,-15
1902,254,4674,19,-436,-38
2000,131,4807,-61,-423,-33
2025,62,4924,-110,-382,-12
2019,91,4882,-128,-323,15
2019,69,4817,-140,-269,31
2012,5,4840,-122,-222,34
1995,33,4857,-75,-171,38
1954,256,4824,-38,-111,45
1917,407,4747,-20,-58,24
1873,324,4679,-24,-17,-16
1800,159,4539,-33,16,-35
1797,35,4411,-55,30,-19
1839,-2,4435,-81,33,11
1845,3,4481,-97,55,36
1810,93,4493,-81,96,52
1812,162,4338,-40,147,44
1818,78,4199,-23,168,21
1792,-64,4154,-32,170,15
1741,-66,4149,-28,173,32
1697,119,4146,-1,183,37
1679,213,4107,18,197,4
1675,79,4064,19,210,-36
1635,-77,4008,8,212,-43
1577,-98,3951,-17,199,0
1583,-20,3948,-51,177,48
1552,-23,3961,-68,163,67
1521,1,3972,-47,156,73
1530,66,3965,-17,154,69
1545,120,4002,7,155,46


-406,-1277,3239,-58,-614,194
-248,-1032,3532,-37,-646,280
-206,-651,3835,73,-626,297
-281,-432,3766,201,-564,271
-319,-454,3575,269,-536,249
-305,-471,3578,258,-567,282
-250,-469,3701,208,-609,352
-171,-469,3882,126,-641,445
-112,-386,4148,122,-658,518
-110,-294,4202,162,-632,565
-131,-227,4144,157,-598,596
-145,-340,4016,135,-583,610
-175,-609,3814,136,-588,632
-253,-685,3576,159,-624,684
-261,-561,3498,199,-699,723
-126,-428,3644,224,-785,733
62,-186,4433,291,-852,726
207,264,4653,406,-796,713
278,692,4539,480,-757,659
332,631,4603,427,-736,592
356,428,4730,337,-712,585
364,507,4915,313,-687,629
348,602,4890,327,-627,658
267,524,4720,307,-572,689
228,589,4660,285,-559,747
215,620,4631,285,-548,778
218,587,4555,312,-540,783
209,636,4602,359,-536,769
184,985,4764,437,-516,735
204,1484,4938,511,-469,659
270,1691,4968,554,-408,535
331,1509,4871,514,-365,434
332,1104,4758,393,-349,419
304,953,4779,280,-358,487
243,1311,4944,258,-354,548
159,1942,5052,293,-310,522
119,2328,4982,359,-253,393
105,2322,4957,378,-229,237
80,2574,5041,312,-217,143
59,3086,5169,279,-212,33
104,3407,5319,250,-194,-130
171,3270,5223,185,-162,-297
237,2966,5056,40,-155,-374
302,2776,4960,-129,-178,-358
317,2732,4909,-312,-203,-294
312,2724,4762,-477,-213,-239
280,2609,4484,-620,-216,-224
264,2418,4273,-724,-243,-247
286,2303,4273,-772,-274,-297
317,2399,4428,-749,-272,-393
391,2501,4483,-675,-213,-559
456,2540,4472,-602,-129,-760
521,2578,4518,-558,-54,-946
521,2578,4518,-558,-54,-946
568,2355,4377,-594,18,-1092
512,1771,4048,-703,53,-1149
441,1185,3685,-836,17,-1093
439,763,3498,-961,-74,-975
435,623,3603,-1054,-181,-851
424,628,3708,-1099,-248,-773
436,666,3773,-1094,-280,-765
481,616,3859,-1047,-287,-837
560,414,3873,-938,-252,-972
617,109,3866,-804,-207,-1118
686,-192,3958,-726,-167,-1211
747,-693,3961,-709,-123,-1246
702,-1215,3910,-721,-104,-1195
646,-1500,3886,-722,-114,-1057
650,-1455,3817,-702,-143,-898
595,-1443,3767,-642,-191,-802
646,-1628,3755,-566,-237,-737
742,-1937,3768,-517,-290,-671
858,-2184,3899,-462,-346,-582
1030,-2336,4114,-401,-370,-478
1129,-2387,4321,-346,-364,-374
1171,-2267,4544,-267,-324,-283
1217,-2152,4743,-161,-256,-238
1276,-2176,4795,-39,-174,-218
1313,-2326,4837,8,-114,-164
1332,-2346,5039,27,-77,-59
1304,-2180,5282,77,-14,42
1224,-1982,5455,197,80,101
1119,-1763,5529,358,194,128
952,-1395,5550,506,306,143
778,-917,5566,641,400,134
732,-593,5573,679,471,114
723,-591,5586,645,517,98
737,-725,5693,588,549,123
651,-740,5912,549,596,203
522,-506,5945,602,680,297
520,-148,5809,700,780,349
482,179,5658,738,861,355
367,517,5581,740,917,334
310,821,5493,712,964,293
269,905,5403,676,1002,215
214,784,5225,610,1043,142
148,605,4932,477,1075,125
22,473,4675,375,1065,130
-73,596,4571,345,1026,143
-78,830,4551,372,989,120
-57,826,4481,387,966,52
-71,689,4341,361,957,3
36,486,4143,309,945,-6
80,247,4021,210,919,24
2,305,4086,56,885,126
-88,734,3990,59,877,183
-169,941,3613,56,877,129
-311,753,3275,-7,836,36
-414,532,3141,-49,749,-22
-459,399,3097,-64,657,-46
-507,384,3014,-75,579,-40
-541,427,2832,-90,501,-29
-563,287,2695,-142,410,-20
-570,102,2604,-173,327,-6
-626,-93,2404,-172,262,16
-701,-176,2144,-159,177,74
-711,-111,1874,-123,64,129
-710,16,1694,-95,-79,150
-679,247,1789,-66,-249,139
-575,409,2089,-18,-394,85
-497,451,2283,15,-488,25
-413,383,2320,21,-551,-20
-306,145,2423,-39,-623,-34
-306,145,2423,-39,-623,-34
-265,-36,2698,-109,-689,-1
-361,31,2843,-121,-726,56
-466,254,2958,-76,-742,81
-528,219,2731,65,-784,42
-448,410,2842,127,-907,31
-324,592,3203,76,-1011,14
-133,538,3488,-9,-1070,-6
48,494,3817,-93,-1111,1
127,483,4042,-153,-1118,24
212,385,4055,-209,-1098,49
285,177,4136,-263,-1099,76
280,222,4234,-275,-1105,124
258,387,4191,-245,-1108,141
315,517,4059,-274,-1131,112
387,280,5015,-270,-1138,27
438,-83,4779,-94,-955,-24
488,30,3892,21,-905,0
557,127,3564,-66,-1053,24
634,38,4191,-236,-1227,45
716,25,4762,-306,-1255,71
770,357,4977,-147,-1194,51
833,615,4933,19,-1102,-20
952,515,4766,85,-1033,-90
1089,215,4773,38,-1014,-87
1120,-114,4910,-56,-999,-15
1094,-239,4962,-122,-952,88
978,-228,4843,-69,-886,147
901,12,4690,75,-832,146
1019,455,4854,230,-796,83
1120,564,4316,312,-758,-31
1184,509,4298,311,-889,-108
1338,489,5002,146,-961,-93
1375,458,5258,9,-897,-46
1385,366,5060,-49,-802,-5
1368,-4,4758,-118,-750,35
1330,-295,4635,-181,-742,111
1334,-225,4638,-161,-735,171
1353,69,4774,-81,-707,170
1340,482,4911,0,-647,116
1392,672,4917,84,-573,13
1399,368,4728,96,-512,-74
1353,89,4646,22,-493,-67
1366,51,4624,0,-498,-11
1405,161,4659,-17,-503,33
1470,260,4726,-30,-492,41
1504,256,4813,10,-472,20
1525,387,4840,41,-429,15
1531,396,4695,20,-378,4
1530,206,4629,-8,-359,-5
1551,77,4684,-35,-350,11
1562,166,4699,-60,-321,39
1585,322,4675,-40,-302,38
1715,449,4770,-20,-287,11
1776,329,4747,-32,-252,-22
1787,220,4837,-37,-227,-24
1781,188,4821,-60,-163,-16
1691,45,4528,-58,-104,-11
1667,65,4391,-59,-94,15
1700,160,4432,-87,-92,35
1689,154,4465,-113,-76,30
1634,128,4360,-124,-51,26
1585,110,4263,-139,-39,30
1544,15,4206,-160,-35,32
1497,-49,4185,-156,-40,46
1477,74,4231,-123,-42,55
1451,203,4233,-74,-28,30
1459,227,4165,-49,-14,-2
1504,131,4143,-47,-16,-30
1568,53,4193,-60,-30,-23
1568,53,4193,-60,-30,-23
1646,90,4299,-58,-35,0
1709,114,4357,-71,-14,26
1718,76,4305,-95,15,47
1666,100,4274,-106,37,70
1636,208,4238,-93,57,71
1588,293,4225,-69,77,40


-322,-652,3613,-507,-687,325
-260,-826,3552,-371,-679,295
-214,-1050,3450,-311,-669,308
-150,-927,3468,-275,-686,371
-122,-579,3574,-243,-711,415
-148,-344,3794,-173,-732,384
-182,-539,4127,35,-721,324
-117,-504,3794,76,-651,372
-86,-523,3498,11,-701,444
-39,-432,3956,-35,-823,530
46,-225,4373,-6,-853,580
111,-47,4538,82,-813,579
99,-14,4489,193,-758,558
113,-68,4391,244,-719,560
174,-101,4434,268,-702,582
194,193,4357,238,-688,606
117,270,4517,255,-709,554
203,-103,4951,380,-644,514
206,-55,4125,429,-552,564
125,144,3613,385,-645,611
193,94,3712,216,-786,650
340,-21,4080,48,-889,703
494,120,4457,64,-927,731
550,303,4633,123,-893,713
560,470,4711,164,-834,681
560,470,4711,164,-834,681
598,462,4668,200,-776,641
653,245,4543,226,-739,611
719,158,4621,253,-735,617
787,242,4781,294,-704,636
742,345,4835,355,-633,629
656,687,4798,462,-567,602
694,929,4616,509,-522,554
748,856,4607,481,-518,504
782,983,4833,471,-533,495
810,1242,5014,467,-506,489
794,1393,4815,429,-447,444
761,1597,4749,379,-444,387
794,1777,4975,339,-457,310
846,1846,5173,326,-433,226
914,2042,5289,323,-384,162
948,2317,5350,298,-330,97
991,2582,5477,245,-281,21
1038,2650,5583,202,-223,-74
1020,2554,5483,145,-148,-154
1001,2507,5303,41,-87,-186
975,2577,5178,-56,-54,-205
944,2584,5007,-149,-25,-241
902,2510,4744,-256,-6,-280
844,2377,4480,-352,-10,-329
806,2165,4264,-441,-30,-385
803,2071,4183,-499,-64,-432
813,2138,4184,-544,-87,-484
824,2151,4195,-592,-92,-565
811,1953,4091,-632,-82,-660
818,1681,3972,-669,-87,-738
835,1492,4028,-696,-104,-786
834,1409,4047,-707,-98,-816
828,1321,3935,-722,-82,-848
810,1131,3764,-746,-85,-876
788,1011,3656,-747,-118,-895
792,856,3616,-747,-160,-929
818,700,3787,-767,-192,-958
917,583,3943,-759,-183,-997
960,407,4060,-739,-141,-1038
959,210,4066,-737,-86,-1054
914,-5,3982,-733,-49,-1040
875,-163,3902,-712,-49,-1012
846,-253,3847,-672,-72,-983
879,-408,3790,-634,-112,-968
965,-684,3857,-640,-170,-950
1075,-1033,3999,-663,-217,-910
1207,-1451,4135,-660,-245,-851
1370,-1969,4156,-668,-255,-754
1528,-2439,4255,-699,-269,-596
1635,-2580,4613,-675,-268,-420
1679,-2518,4863,-550,-195,-296
1710,-2445,4840,-344,-82,-256
1669,-2594,4719,-129,2,-271
1685,-2643,4799,13,38,-233
1862,-2379,5163,68,68,-147
1977,-2163,5521,83,132,-89
1935,-1997,5766,98,221,-29
1914,-1870,5866,110,318,40
1874,-1799,6083,91,407,125
1803,-1683,6134,82,519,234
1617,-1375,6122,93,623,344
1385,-806,6197,143,717,415
1218,-248,6056,239,827,398
1189,-117,5778,324,933,295
1130,-368,5664,362,1004,206
977,-421,5655,349,1090,217
774,-206,5457,294,1204,290
633,63,5175,244,1308,346
452,330,4819,267,1383,341
452,330,4819,267,1383,341
207,518,4322,313,1413,288
39,453,3901,312,1372,230
-136,424,3667,295,1281,210
-327,611,3491,273,1185,211
-436,761,3244,230,1098,176
-525,716,3008,118,1006,127
-619,581,2863,29,907,79
-645,346,2681,-9,813,41
-681,111,2498,-58,719,45
-736,122,2469,-117,615,104
-795,242,2382,-129,531,144
-829,199,2103,-72,451,138
-779,250,1879,-39,337,130
-761,260,1777,13,192,94
-697,274,1731,100,32,41
-518,239,1720,153,-123,-8
-318,-23,1792,143,-277,-48
-152,-359,2006,76,-424,-20
-44,-323,2280,40,-540,72
-73,-38,2427,14,-610,146
-23,96,2615,-24,-665,159
-28,43,2764,0,-725,130
-102,67,2887,65,-794,102
-111,66,2890,83,-860,89
-6,74,2986,84,-945,79
164,106,3275,97,-1029,51
263,194,3661,124,-1075,17
313,278,3894,147,-1068,-20
442,189,3860,166,-1037,-62
548,-50,3818,135,-1035,-54
591,-117,3928,71,-1066,17
591,37,4102,11,-1093,107
628,345,4181,-19,-1078,141
650,479,3960,34,-1083,69
790,444,4085,94,-1142,-39
912,236,4447,61,-1170,-107
1016,246,4797,-16,-1154,-86
1052,232,4802,-57,-1105,-59
1019,-23,4711,-79,-1069,-39
1060,-184,4649,-47,-1041,3
1154,-127,4613,42,-1015,33
1290,26,4657,136,-983,23
1365,326,4839,199,-949,0
1435,408,4971,204,-902,-40
1467,44,4854,162,-848,-61
1478,-153,4946,84,-814,-7
1423,5,4175,13,-811,51
1393,279,4471,-8,-978,53
1497,143,5074,-49,-1006,18
1567,-17,5081,-19,-919,5
1586,13,4984,9,-830,25
1591,93,4839,53,-757,27
1683,78,4773,40,-710,13
1745,34,4856,-9,-692,15
1815,244,5085,-71,-674,43
1889,328,5186,-93,-617,32
1869,166,5135,-90,-541,1
1758,209,4974,-101,-481,4
1736,320,4952,-108,-462,7
1772,248,5113,-132,-429,-3
1736,188,5215,-116,-368,-9
1719,252,5136,-66,-296,-2
1776,168,4942,-21,-242,-3
1823,-57,4815,-15,-211,0
1781,-225,4626,28,-205,29
1809,-8,4712,73,-213,89
1832,324,4840,72,-183,101
1869,442,4839,51,-120,50
1872,297,4738,-7,-49,-14
1872,297,4738,-7,-49,-14
1758,86,4600,-64,0,-39
1638,45,4430,-95,23,-21
1574,60,4250,-117,20,-2
1551,13,4159,-119,-2,5
1587,-23,4191,-112,-31,13
1650,-14,4279,-77,-39,11
1728,-21,4332,-44,-17,6
1733,-78,4331,-20,19,6
1714,-144,4263,0,61,20
1633,-154,4145,6,91,47
1589,-107,4006,4,101,78
1560,7,3996,-5,90,94
1581,113,4074,-13,82,83
1581,124,4113,-17,90,52
1575,103,4142,-16,100,28
1583,47,4136,-5,117,14
1526,20,4046,-11,134,21
1441,44,3921,-24,132,35
1405,35,3861,-35,110,41
1401,30,3854,-37,78,40
1383,75,3869,-42,48,46
1380,159,3943,-34,18,43
1438,173,4001,-12,2,11
1494,49,3965,-19,0,-13
1573,-56,3988,-40,-11,-9
1670,-55,4112,-55,-18,11
1684,-17,4190,-59,0,26
1646,25,4147,-44,32,25
1597,14,4049,-32,57,14
1532,18,4031,-27,57,10
1513,61,4037,-27,50,11
1499,64,4017,-29,40,10
1451,38,3981,-43,20,16
1443,17,3958,-63,-5,28


-154,-488,3601,-288,-966,497
-87,-455,4159,-314,-1050,516
68,-220,4411,-245,-1016,538
49,-93,4083,-248,-969,517
-28,-346,4211,-265,-989,487
30,-504,4540,-164,-986,490
116,-435,4577,-8,-924,514
144,-136,4554,66,-863,542
140,-129,4522,114,-820,526
135,-205,4664,179,-789,520
150,135,4603,256,-752,526
163,64,4435,267,-740,487
152,-159,5089,297,-726,509
173,314,4558,337,-630,594
135,632,4083,244,-681,589
127,375,4368,48,-800,540
230,7,4552,-35,-849,528
314,-229,4405,-41,-854,555
393,-161,4387,-20,-868,590
516,-100,4425,17,-855,584
649,-199,4460,79,-816,550
756,-157,4611,179,-771,522
778,-17,4671,267,-701,501
751,119,4545,331,-637,491
691,149,4376,356,-604,492
638,148,4286,336,-608,506
594,280,4447,316,-631,524
573,652,4742,364,-628,517
578,976,4665,406,-595,453
615,1035,4765,381,-605,366
700,933,5033,326,-596,306
748,955,5281,309,-546,276
787,1256,5445,360,-468,245
773,1443,5405,362,-372,197
694,1606,5419,334,-305,143
668,1857,5551,323,-252,75
660,1995,5493,321,-195,-8
684,2163,5501,284,-174,-73
759,2278,5604,208,-164,-133
862,2298,5607,114,-137,-193
945,2137,5486,1,-103,-238
978,1872,5351,-106,-69,-257
930,1782,5115,-168,-31,-254
841,1914,4878,-215,-12,-268
832,2078,4697,-281,-9,-319
879,1953,4528,-345,-11,-419
867,1641,4391,-424,-23,-504
813,1511,4303,-486,-43,-546
799,1422,4277,-535,-53,-586
766,1331,4268,-568,-51,-636
734,1240,4226,-534,-38,-699
686,1131,4048,-467,-18,-780
641,1061,3973,-442,-13,-846
674,1064,4107,-424,-14,-909
685,1010,4136,-406,6,-967
651,777,3992,-413,31,-1009
559,463,3826,-434,38,-1016
515,370,3690,-422,18,-993
606,418,3543,-412,-27,-969
779,373,3782,-469,-93,-963
895,169,3919,-533,-116,-961
877,-48,3847,-540,-120,-953
876,-81,3842,-505,-144,-943
949,-193,3903,-491,-162,-953
995,-373,4012,-497,-165,-960
1007,-533,4041,-489,-152,-953
1007,-533,4041,-489,-152,-953
1043,-842,3940,-501,-147,-921
1061,-1247,3927,-535,-174,-850
1031,-1511,3964,-565,-214,-734
1072,-1454,4098,-545,-251,-625
1223,-1498,4258,-497,-265,-581
1418,-1798,4416,-474,-256,-561
1553,-2285,4618,-422,-223,-512
1666,-2546,4804,-354,-163,-405
1716,-2511,4947,-281,-91,-279
1838,-2429,5049,-193,-24,-177
1947,-2462,5277,-151,38,-87
1925,-2447,5555,-116,120,18
1803,-2368,5628,-57,243,118
1569,-2152,5435,44,365,201
1396,-1808,5301,170,442,235
1289,-1513,5405,299,492,212
1210,-1337,5442,391,557,186
1133,-1227,5419,411,614,202
1109,-1126,5527,390,651,260
1082,-924,5645,366,702,345
976,-677,5668,342,782,423
827,-508,5625,338,874,474
679,-395,5459,355,967,504
472,-218,5320,398,1045,504
255,133,5276,456,1111,484
112,427,5093,495,1188,432
10,462,4837,510,1242,361
-134,473,4603,486,1254,326
-270,609,4367,486,1236,312
-376,799,3913,501,1193,278
-442,772,3573,477,1086,207
-466,678,3514,427,944,150
-435,803,3567,374,828,129
-383,875,3547,316,760,90
-405,760,3480,270,727,26
-483,656,3220,253,708,-7
-604,644,2723,251,662,-20
-677,729,2270,212,541,-25
-587,681,2029,88,359,-36
-440,298,2039,-31,155,-52
-313,71,2222,-103,-23,-13
-203,228,2267,-140,-151,47
-59,326,2156,-156,-254,53
78,279,2207,-157,-370,15
218,139,2390,-156,-469,-19
362,-41,2598,-166,-526,-33
423,-186,2824,-148,-545,-15
400,-167,2896,-99,-534,28
317,-52,2852,-58,-522,69
192,137,2632,1,-535,74
45,126,2386,30,-603,26
-18,-2,2572,69,-729,-31
19,-58,2786,110,-827,-64
80,-144,2979,127,-909,-69
163,-149,3191,106,-975,-21
234,-55,3383,35,-1018,44
273,202,3659,0,-1049,86
346,494,3836,67,-1052,56
399,396,3695,117,-1035,-19
436,312,3679,85,-1070,-47
539,355,4061,53,-1141,-41
718,297,4336,10,-1151,-33
793,157,4264,-50,-1157,-20
873,193,4680,-90,-1184,0
923,137,4877,-62,-1124,-5
924,-14,4649,7,-1029,-8
882,-7,4372,64,-984,17
875,275,4291,114,-992,37
1036,311,4360,145,-1006,0
1252,-12,4626,153,-1010,-31
1252,-12,4626,153,-1010,-31
1340,-22,4961,157,-977,10
1370,305,5114,174,-900,65
1384,552,5109,224,-817,51
1380,603,4689,204,-732,11
1418,582,4072,159,-827,-25
1602,326,4893,-17,-984,-25
1687,-126,5460,-110,-954,10
1632,-56,5442,-74,-816,87
1551,129,5045,1,-678,98
1527,151,4762,77,-620,55
1553,121,4724,97,-605,12
1551,-34,4732,134,-606,-4
1561,198,4885,152,-598,28
1500,360,4792,98,-548,27
1422,183,4590,36,-518,3
1444,105,4643,11,-517,1
1508,237,4690,7,-500,3
1511,281,4655,2,-482,-6
1549,193,4685,-19,-468,-5
1584,152,4808,-48,-447,10
1652,218,4828,-30,-401,22
1750,332,4811,18,-357,8
1859,320,4884,35,-323,-12
1886,173,4986,26,-273,-16
1882,150,5011,39,-215,13
1901,287,4980,77,-156,49
1909,393,4947,108,-100,62
1901,415,4927,111,-45,56
1853,436,4832,97,5,51
1786,368,4553,57,39,54
1708,285,4466,16,25,66
1652,281,4492,-36,24,79
1611,195,4420,-38,41,61
1582,116,4284,12,53,40
1566,262,4223,-3,57,37
1559,384,4248,-60,66,16
1545,219,4188,-88,77,-11
1529,25,4081,-101,77,-6
1526,18,4070,-98,57,22
1557,116,4141,-77,48,47
1586,199,4174,-64,56,57
1592,116,4085,-62,69,55
1540,30,4030,-51,75,60
1507,179,3988,-29,70,69
1526,289,3961,-11,61,44
1558,243,4021,-3,51,3
1576,165,4076,-10,55,-18
1548,152,4076,-9,64,-16
1546,198,4071,-5,71,-5
1554,182,3992,0,74,-4
1537,141,3976,-27,67,6
1470,207,4026,-40,59,24
1458,265,4009,-23,61,19
1437,190,3936,-18,64,3
1381,144,3923,-27,53,3
1378,190,3908,-16,34,7
1397,150,3914,-10,16,0
1446,153,3968,-19,-2,2
1496,130,4058,-45,-12,11
1480,115,4090,-66,-9,28
1470,177,4037,-62,-5,39
1484,268,4024,-39,-13,22


-585,-758,3526,72,-563,214
-573,-745,3634,71,-595,247
-518,-753,3747,108,-617,272
-496,-792,3719,170,-623,279
-554,-789,3861,253,-629,307
-506,-603,3857,357,-608,328
-476,-517,3708,491,-621,311
-433,-394,3779,500,-662,351
-348,-287,3867,480,-689,403
-324,-123,3956,461,-711,445
-310,21,4029,427,-721,470
-281,-110,3943,379,-721,479
-292,-383,3944,334,-740,504
-317,-518,4041,319,-759,573
-228,-467,3999,393,-757,636
-146,-387,4029,492,-760,653
-123,-100,4180,566,-762,654
-42,227,4201,629,-742,631
-14,502,4381,643,-744,591
77,798,4617,633,-743,557
243,903,4612,610,-729,493
296,352,4942,588,-734,447
400,-70,4921,499,-616,561
405,0,4081,382,-561,712
330,187,4095,292,-666,798
330,187,4095,292,-666,798
322,268,4439,220,-711,806
232,60,4670,394,-689,748
295,659,4754,619,-630,745
421,1304,4681,683,-565,664
523,1193,4725,676,-544,543
642,875,4910,606,-529,520
645,869,5030,503,-481,587
612,972,4900,448,-405,634
570,869,4730,463,-351,624
544,861,4706,518,-322,610
523,1042,4659,569,-288,605
469,1324,4662,617,-262,578
395,1717,4679,631,-250,533
397,2169,4710,589,-244,473
473,2332,4725,512,-244,370
559,1954,4643,390,-245,269
530,1420,4680,276,-256,251
453,1537,4774,228,-242,314
427,2040,4673,209,-210,339
452,2300,4650,189,-195,268
468,2226,4678,166,-180,163
468,2140,4695,143,-162,90
498,2160,4726,121,-138,49
514,2249,4743,101,-109,13
456,2436,4715,62,-78,-22
396,2643,4653,16,-57,-78
370,2610,4582,-34,-48,-165
348,2399,4515,-75,-47,-247
305,2375,4430,-130,-54,-284
347,2414,4350,-206,-71,-316
411,2189,4272,-298,-97,-364
438,2012,4314,-406,-126,-367
482,1997,4361,-487,-137,-355
457,1975,4329,-545,-130,-365
396,1955,4282,-572,-120,-405
388,1865,4175,-560,-110,-479
404,1638,4086,-559,-106,-557
403,1489,4120,-559,-116,-609
415,1588,4186,-546,-120,-648
435,1607,4143,-544,-111,-708
447,1308,3997,-577,-114,-768
470,1008,3946,-631,-146,-770
506,956,4032,-657,-182,-742
587,918,4045,-654,-193,-737
621,808,4056,-651,-197,-747
664,817,4178,-648,-194,-761
768,710,4173,-647,-179,-787
767,565,4281,-653,-163,-806
703,671,4368,-601,-123,-822
666,643,4181,-540,-70,-874
665,403,3967,-536,-63,-914
722,218,4041,-563,-101,-905
813,21,4197,-608,-129,-864
811,-233,4237,-646,-126,-803
760,-373,4132,-654,-122,-730
761,-360,4090,-644,-139,-669
801,-481,4144,-617,-163,-655
843,-571,4360,-578,-181,-647
870,-557,4565,-536,-167,-634
920,-734,4527,-512,-127,-629
928,-1211,4438,-542,-110,-598
886,-1599,4572,-539,-120,-495
903,-1594,4674,-536,-106,-344
912,-1589,4751,-498,-84,-252
931,-1674,4899,-431,-60,-201
1014,-1751,5099,-364,-28,-149
1102,-1923,5315,-321,16,-89
1128,-2069,5501,-273,76,-2
1097,-1945,5657,-197,153,101
1097,-1945,5657,-197,153,101
1075,-1539,5789,-73,256,163
977,-1096,5820,86,383,139
888,-839,5683,225,511,64
850,-667,5672,297,597,20
771,-511,5796,306,666,32
637,-329,5738,300,755,81
515,-151,5569,314,837,125
439,-71,5385,313,899,166
342,5,5212,318,942,203
192,183,4983,314,975,239
16,523,4755,337,989,243
-66,700,4355,341,988,192
-116,482,4119,273,941,125
-194,318,4151,205,873,119
-215,504,4157,144,831,172
-200,641,4021,84,816,198
-244,618,3811,46,795,189
-242,688,3706,33,753,183
-183,817,3682,39,715,158
-125,901,3626,31,688,122
-146,841,3471,-8,668,86
-257,700,3178,-32,634,58
-271,643,2888,-67,566,56
-283,517,2712,-141,467,58
-345,415,2562,-200,361,69
-412,308,2338,-246,254,85
-421,186,2165,-262,129,98
-384,141,2211,-265,4,93
-280,-128,2224,-244,-84,70
-259,-391,2260,-201,-161,77
-346,-301,2299,-133,-225,113
-417,-129,2204,-37,-279,107
-456,-117,2138,43,-358,62
-465,-54,2258,125,-466,18
-416,25,2507,180,-570,-15
-372,17,2750,207,-649,-38
-350,88,2896,215,-719,-26
-264,265,3017,221,-793,-1
-147,421,3170,170,-872,6
-57,297,3565,97,-917,18
63,336,3502,107,-936,45
139,541,3521,122,-1000,40
180,244,3690,30,-1045,10
286,-96,3770,-17,-1068,21
403,-127,3863,-14,-1092,60
450,59,3981,18,-1105,79
476,171,4086,67,-1098,58
527,335,4241,141,-1092,29
665,533,4471,214,-1064,-12
759,454,4277,212,-1043,-52
822,410,4520,126,-1092,-35
916,405,4876,55,-1102,6
1009,423,5022,15,-1063,44
1023,385,5038,8,-1001,62
993,327,4900,44,-930,60
951,319,4710,87,-874,53
911,320,4553,124,-842,41
910,287,4372,142,-834,31
992,229,4359,148,-853,15
1053,231,4589,164,-869,0
1113,291,4883,167,-846,-2
1122,223,4464,122,-782,13
1093,383,4235,77,-877,47
1110,413,4869,-11,-955,76
1115,341,4960,-47,-876,89
1079,218,4594,-41,-782,91
1097,111,4315,-17,-764,91
1180,-28,4302,-5,-795,107
1180,-28,4302,-5,-795,107
1377,17,4379,45,-818,111
1377,17,4379,45,-818,111
1513,315,4732,188,-816,52
1695,648,5055,316,-755,-30
1844,626,5113,323,-662,-96
1943,643,5236,221,-594,-72
1901,565,5299,97,-523,-24
1788,475,5247,13,-457,44
1696,696,5031,-45,-416,103
1642,891,5038,-103,-423,93
1660,760,5290,-136,-408,40
1731,631,5394,-142,-339,8
1794,363,5270,-109,-249,-2
1841,185,4948,-66,-194,30
1829,287,4887,-69,-191,75
1807,282,4992,-80,-157,82
1774,162,4811,-44,-96,64
1749,87,4672,-11,-57,57
1746,168,4614,-7,-36,65
1687,338,4573,-38,-18,67
1615,396,4481,-86,0,52
1546,368,4434,-119,15,19
1484,339,4427,-101,29,-16
1491,243,4305,-74,43,-38
1585,98,4257,-101,32,-19
1626,33,4421,-150,19,29
1606,217,4496,-135,42,80
1571,399,4396,-87,88,84
1562,365,4306,-37,127,42
1551,177,4151,-13,154,12
1526,136,4072,-24,149,33
1510,286,4082,-50,129,65
1471,389,4057,-72,124,60
1409,343,4037,-88,124,21
1338,262,3971,-85,125,-14


-334,-691,3248,-532,-1050,489
-322,-569,3378,-490,-1053,490
-290,-586,3451,-399,-1053,450
-299,-444,3457,-301,-1063,421
-355,-306,3773,-229,-1095,394
-321,-50,4022,-63,-1092,358
-218,-65,3952,12,-1075,327
-113,-26,4052,-70,-1108,366
-79,-234,4456,-159,-1136,425
-81,-233,4638,-196,-1075,516
-119,44,4451,-154,-1017,552
-91,185,4527,-48,-1008,513
20,27,4457,29,-984,475
159,-228,4456,-10,-977,511
202,-352,4737,-38,-970,596
120,-47,4608,15,-905,658
-25,75,4543,100,-878,606
24,32,5021,315,-823,517
150,339,4395,513,-729,465
209,457,4058,441,-778,446
341,107,4233,240,-877,492
518,-152,4554,23,-939,627
613,-183,4680,-113,-935,760
570,-92,4705,-88,-896,796
515,-25,4627,45,-838,740
566,-105,4564,217,-786,649
638,-198,4588,376,-737,577
687,-153,4512,442,-695,581
715,241,4588,408,-687,645
746,692,4839,381,-682,658
828,823,4917,394,-640,596
843,558,4904,442,-588,513
797,696,4872,467,-535,493
771,1388,4936,462,-503,473
823,1825,5181,469,-486,367
866,1740,5383,422,-448,260
870,1514,5376,348,-397,227
878,1373,5380,265,-356,256
865,1507,5512,233,-311,288
803,2096,5628,232,-234,272
759,2436,5597,210,-138,163
695,2366,5481,194,-55,18
557,2164,5246,153,1,-79
423,2167,4901,115,22,-129
395,2089,4608,44,-6,-178
436,2036,4566,-40,-75,-211
606,2045,4650,-122,-127,-242
775,1997,4845,-191,-140,-282
819,1933,4886,-241,-100,-324
797,1999,4685,-266,-51,-369
757,1921,4354,-328,-31,-436
776,1599,4242,-406,-55,-506
796,1349,4344,-434,-80,-551
839,1415,4405,-403,-66,-581
820,1391,4244,-363,-26,-644
668,1224,3986,-388,-3,-697
611,1100,3826,-425,-22,-730
687,900,3904,-450,-61,-761
731,844,4136,-482,-77,-762
728,903,4239,-491,-46,-759
674,815,4103,-473,0,-785
589,652,3905,-431,18,-827
548,532,3788,-429,14,-859
541,342,3641,-436,-17,-882
634,60,3576,-480,-87,-865
757,-109,3791,-527,-167,-813
757,-109,3791,-527,-167,-813
864,-60,4077,-515,-197,-774
943,-75,4156,-447,-168,-793
999,-230,4151,-378,-127,-830
1023,-478,4063,-338,-101,-836
1021,-829,3971,-411,-111,-767
1029,-1013,4043,-530,-149,-637
1000,-1011,4170,-575,-174,-534
980,-994,4242,-533,-171,-507
1019,-1081,4223,-456,-155,-531
1120,-1162,4147,-399,-155,-555
1212,-1426,4285,-350,-183,-563
1349,-1641,4558,-323,-192,-506
1412,-1658,4788,-329,-168,-400
1406,-1486,4934,-316,-126,-293
1359,-1323,5038,-286,-72,-232
1338,-1297,5106,-232,-18,-208
1318,-1263,5215,-182,21,-177
1321,-1148,5350,-180,62,-126
1295,-1111,5505,-229,104,-64
1238,-1111,5529,-279,155,4
1182,-1167,5489,-275,200,56
1156,-1309,5583,-186,247,67
1105,-1408,5655,-87,325,92
1065,-1052,5773,-5,416,145
1047,-521,6019,126,535,134
1062,-162,6030,318,697,57
965,-159,5722,452,852,-19
801,-264,5424,531,946,-52
686,-243,5252,586,997,-35
601,-146,5071,600,1040,2
560,-13,4895,588,1069,48
495,112,4751,510,1089,100
440,258,4648,395,1104,152
359,285,4482,318,1123,162
157,268,4287,328,1138,132
-60,315,4059,377,1137,87
-246,512,3844,389,1115,51
-399,866,3718,384,1069,0
-516,1040,3547,383,1007,-93
-576,820,3317,361,932,-197
-640,412,3198,278,828,-225
-635,117,3103,208,724,-170
-623,3,2913,142,630,-68
-623,94,2745,70,522,41
-566,275,2687,26,400,104
-475,302,2724,7,293,103
-488,133,2605,20,221,70
-528,115,2403,49,145,50
-478,179,2326,110,47,2
-309,65,2437,163,-54,-66
-173,-152,2567,171,-135,-90
-92,-176,2641,129,-198,-22
-9,-6,2747,92,-258,62
-7,63,2816,69,-305,106
-91,-56,2757,56,-338,121
-225,-73,2722,74,-398,144
-270,186,2731,127,-475,155
-281,270,2808,164,-561,103
-261,71,2980,170,-635,52
-232,-29,2889,156,-703,55
-209,97,3070,145,-805,71
-140,306,3373,189,-866,53
-27,298,3447,217,-884,24
74,212,3420,190,-901,48
97,307,3418,141,-941,107
118,607,3421,85,-991,154
215,743,3524,75,-1050,130
367,529,3681,57,-1083,68
452,120,3590,12,-1123,44
560,14,3885,-53,-1202,92
560,14,3885,-53,-1202,92
673,157,4263,-125,-1227,159
764,358,4463,-87,-1200,165
802,349,4435,34,-1159,100
901,205,4313,126,-1131,46
1000,170,4354,136,-1127,46
1107,391,4533,121,-1131,75
1225,437,4640,108,-1119,82
1355,359,5027,28,-1085,116
1338,397,4158,10,-1029,146
1255,567,4185,-49,-1175,151
1284,527,4964,-180,-1241,142
1361,417,5210,-194,-1146,119
1448,92,5016,-114,-1012,87
1519,-32,4764,-53,-926,102
1571,274,4789,-13,-894,126
1594,558,4868,62,-860,86
1635,605,5019,98,-820,23
1624,550,5088,112,-766,-17
1631,490,4973,72,-694,-13
1594,261,4571,0,-661,10
1493,32,4472,-98,-699,80
1419,22,4618,-162,-722,150
1374,223,4631,-154,-699,158
1367,387,4635,-20,-696,92
1500,622,4827,102,-694,22
1688,663,4976,157,-670,-42
1868,552,5114,130,-621,-60
1994,446,5120,45,-562,-15
1967,424,5173,-67,-501,61
1871,401,5016,-127,-428,117
1841,361,4814,-141,-380,131
1859,450,4897,-99,-363,106
1944,549,5061,-18,-322,42
2016,551,5082,30,-253,-14
2035,504,5003,26,-188,-33
1983,463,4926,1,-132,-28
1911,422,4753,-18,-75,-23
1896,302,4642,-47,-39,-20
1799,214,4597,-67,-11,-3
1702,238,4435,-73,16,26
1660,207,4252,-66,24,37
1613,256,4244,-63,8,44
1606,375,4256,-58,1,51
1638,355,4193,-50,3,32
1644,213,4156,-69,6,17
1618,209,4143,-86,8,31
1636,280,4161,-67,12,26
1669,182,4112,-43,26,2
1654,58,4056,-37,37,1
1647,61,4001,-22,44,17
1628,102,3949,-21,44,34
1630,225,3978,-15,35,38
1681,325,4049,5,33,15
1688,205,4054,15,45,-14
1601,133,3992,4,56,-1
1556,260,3884,0,50,22
1566,324,3856,-26,19,28
1585,310,3955,-59,-9,31
1633,266,4061,-64,-18,27
1613,199,4068,-77,-7,38
1610,189,4010,-80,0,58
1634,225,4008,-72,0,63


-348,-917,3500,122,-471,234
-468,-699,3388,225,-488,232
-535,-681,3208,275,-518,210
-434,-928,3170,302,-582,199
-277,-945,3540,338,-664,247
-162,-567,3939,368,-684,325
-165,-199,3988,389,-647,357
-266,-113,3801,383,-626,345
-279,-324,3655,340,-657,342
-198,-496,3715,285,-722,383
-32,-429,4030,259,-776,438
95,-247,4341,273,-770,471
92,21,4535,295,-724,481
135,69,4551,326,-670,455
162,-188,4611,337,-628,436
125,-209,4567,362,-589,462
69,-51,4418,405,-567,474
94,11,4317,440,-577,455
237,-68,4196,420,-603,440
267,-331,4320,373,-662,459
357,-237,4975,360,-645,570
321,41,4078,342,-529,631
224,164,3714,240,-619,622
228,5,4254,127,-744,588
386,-236,4652,204,-753,579
463,-199,4477,308,-693,597
409,-82,4194,329,-670,623
488,73,4331,373,-686,612
558,132,4538,437,-662,565
638,432,4723,533,-608,527
666,769,4751,623,-541,477
667,821,4671,591,-489,444
713,673,4730,512,-475,449
660,689,4864,458,-468,497
568,1022,4889,443,-442,541
503,1096,4653,446,-416,510
484,938,4659,433,-431,463
484,938,4659,433,-431,463
500,1205,4822,428,-437,444
495,1542,4754,434,-431,372
527,1600,4900,385,-445,277
599,1572,5170,349,-424,190
658,1450,5167,337,-361,134
662,1546,5190,303,-316,130
667,1859,5332,256,-274,121
707,2103,5483,235,-222,68
726,2192,5508,231,-156,-5
741,2269,5444,182,-97,-57
745,2456,5332,92,-66,-90
771,2518,5190,-22,-57,-143
793,2204,5037,-150,-60,-211
746,1949,4856,-243,-66,-237
740,1944,4595,-295,-76,-246
774,1880,4445,-352,-100,-280
784,1826,4456,-412,-121,-317
779,1803,4404,-455,-111,-361
726,1700,4236,-482,-84,-419
638,1643,4142,-496,-68,-478
537,1683,4070,-492,-56,-552
523,1596,3888,-498,-46,-634
590,1404,3918,-537,-60,-694
579,1481,4088,-560,-60,-729
535,1566,3973,-567,-27,-781
477,1348,3724,-594,-21,-834
486,1098,3521,-632,-68,-842
570,910,3567,-684,-149,-831
640,737,3743,-699,-210,-826
712,722,3916,-708,-228,-820
765,681,3950,-692,-217,-844
828,573,4015,-670,-208,-894
889,306,4065,-649,-193,-944
904,21,4084,-617,-179,-964
890,-166,4050,-590,-170,-958
929,-399,4001,-590,-174,-934
965,-648,4038,-629,-193,-888
967,-860,4094,-628,-216,-835
1026,-971,4230,-575,-238,-789
1139,-1135,4324,-505,-237,-757
1198,-1365,4396,-499,-221,-703
1253,-1550,4490,-430,-207,-651
1365,-1723,4536,-303,-194,-601
1507,-1979,4597,-228,-181,-529
1682,-2163,4812,-174,-164,-428
1851,-2134,5149,-90,-120,-328
1891,-2192,5360,23,-19,-253
1846,-2270,5281,109,106,-166
1741,-2345,5096,175,206,-76
1571,-2174,5150,234,252,30
1424,-1649,5367,307,299,121
1313,-1080,5444,359,375,145
1257,-870,5412,351,446,109
1230,-962,5402,284,486,89
1165,-1087,5447,196,513,131
1075,-1039,5377,149,545,220
977,-895,5218,102,569,318
950,-834,5236,109,569,378
921,-668,5399,138,587,434
886,-274,5490,187,648,481
767,206,5441,278,736,453
602,623,5250,293,821,380
521,659,4957,203,877,289
441,271,4794,145,892,189
240,-20,4664,170,890,150
56,196,4499,220,884,173
17,582,4296,235,866,173
194,626,4263,196,830,124
245,315,4392,128,806,91
245,315,4392,128,806,91
83,308,4437,85,818,147
-33,637,4205,82,853,202
-162,776,3937,106,864,160
-273,755,3664,170,843,72
-335,607,3385,177,792,4
-337,425,3241,113,707,-16
-316,253,3240,36,606,6
-296,101,3217,18,519,47
-211,113,3190,10,451,95
-188,122,3171,24,417,97
-246,119,3035,91,402,77
-313,350,2884,163,369,58
-337,590,2748,195,318,12
-357,507,2546,169,244,-37
-415,206,2372,104,136,-44
-455,40,2287,51,17,-6
-481,25,2221,23,-96,38
-449,18,2203,39,-209,58
-383,-18,2220,61,-315,71
-356,10,2398,92,-415,78
-306,241,2615,168,-484,65
-260,479,2743,238,-530,18
-240,536,2788,248,-578,-49
-237,385,2800,207,-641,-94
-157,304,3124,186,-728,-89
-59,305,3366,198,-745,-66
0,389,3109,219,-752,-37
49,438,3227,173,-828,-9
80,432,3448,153,-889,0
165,288,3435,143,-922,-10
321,56,3501,139,-968,-12
501,0,3705,152,-1005,11
649,60,3904,178,-1014,37
804,277,4086,193,-1008,55
836,551,4308,178,-985,49
820,821,4579,165,-940,11
814,745,4216,145,-876,-61
777,407,4015,130,-926,-105
749,249,4219,68,-997,-65
844,257,4246,35,-1017,-1
906,227,4201,16,-1031,40
960,210,4259,2,-1042,72
1017,91,4383,-11,-1030,90
1070,49,4524,24,-998,98
1083,244,4718,102,-955,92
1087,752,4884,169,-899,63
1179,1083,4933,217,-840,-30
1238,771,4777,203,-805,-137
1235,481,4847,100,-792,-131
1179,284,3906,16,-817,-69
1137,63,4157,-117,-1013,4
1250,-176,4773,-206,-1084,90
1412,-43,4951,-117,-1020,138
1594,495,5123,40,-924,113
1756,870,5147,129,-810,25
1764,564,4978,111,-718,-64
1685,122,4888,24,-681,-43
1599,124,4696,-43,-669,56
1578,187,4536,-98,-703,117
1635,56,4888,-96,-737,131
1673,199,5174,-20,-664,123
1651,476,5066,111,-536,71
1664,512,4845,222,-455,-4
1755,434,4780,218,-426,-35
1793,343,4854,164,-429,-10
1828,367,5051,111,-423,45
1890,495,5165,99,-368,79
1883,483,4850,139,-300,72
1912,612,4947,110,-298,77
1912,612,4947,110,-298,77
1970,591,5016,46,-257,74
1963,507,4904,31,-217,68
1937,525,4927,-8,-178,72
1872,583,4854,-39,-116,57
1771,516,4712,-20,-59,8
1713,377,4574,30,-18,-35
1706,237,4423,60,4,-47
1698,150,4377,60,7,-16
1689,246,4382,60,15,35
1646,388,4307,58,30,70
1624,462,4232,53,45,73
1590,447,4157,49,51,60
1551,485,4100,41,52,50
1506,555,4077,27,50,32
1506,520,3973,8,49,5
1513,401,3986,-29,35,-4
1469,462,4112,-24,27,0
1498,522,3972,12,39,-13
1575,357,3887,-2,26,-23
1655,360,4063,-19,-1,4
1685,488,4151,-24,0,30
1695,552,4091,-42,21,33


-745,-313,3326,143,-567,217
-596,-194,3325,103,-635,248
-440,-192,3563,22,-731,271
-331,-158,4247,32,-797,297
-216,-119,4466,100,-717,343
-216,-119,4466,100,-717,343
-251,235,4077,148,-659,390
-293,358,4098,114,-674,388
-315,17,4175,97,-676,359
-282,-188,4071,149,-665,374
-207,-258,3863,180,-670,416
-163,-290,3827,175,-699,467
-146,-271,3900,175,-725,507
-123,-36,3989,261,-746,515
-35,175,4004,377,-754,469
58,100,4134,438,-768,408
167,113,4331,452,-766,417
294,258,4302,416,-734,479
322,343,4103,309,-728,541
177,37,4391,231,-761,593
222,-123,4351,233,-684,682
184,34,3285,246,-665,707
38,-54,3540,293,-834,651
203,302,4188,385,-923,635
515,728,4400,399,-903,611
591,856,4600,384,-896,568
623,845,4720,298,-865,561
759,675,4762,232,-825,566
812,363,4839,252,-785,575
778,386,4794,296,-729,641
763,698,4651,325,-675,692
781,920,4626,344,-652,681
849,940,4651,368,-643,640
888,780,4627,356,-636,626
912,802,4756,347,-622,650
886,1029,4526,361,-580,640
848,1263,4494,386,-596,573
883,1500,4796,369,-611,496
928,1753,5104,362,-576,420
983,1845,5102,373,-505,333
979,1596,5103,349,-449,271
929,1719,5269,323,-410,281
866,2221,5403,296,-350,289
882,2620,5483,289,-278,218
888,2632,5508,276,-205,102
835,2571,5496,238,-139,29
763,2738,5368,175,-87,-1
734,2869,5125,73,-60,-41
777,2664,4940,-45,-74,-98
791,2511,4936,-160,-106,-124
818,2687,4937,-231,-113,-138
884,2821,4813,-303,-96,-196
958,2669,4665,-393,-77,-281
949,2385,4554,-492,-57,-344
849,2141,4336,-576,-35,-374
709,1974,4054,-632,-28,-400
589,1916,3855,-664,-52,-439
577,1921,3779,-676,-94,-493
605,1851,3740,-686,-135,-561
678,1685,3710,-705,-169,-626
750,1416,3678,-718,-196,-684
821,1244,3747,-713,-220,-716
917,1208,3787,-698,-224,-741
980,1119,3737,-704,-214,-771
976,959,3708,-721,-211,-813
942,827,3741,-735,-206,-845
953,665,3761,-739,-195,-875
905,354,3819,-724,-187,-902
850,17,3697,-682,-175,-888
833,8,3659,-622,-196,-845
879,99,3704,-568,-228,-830
1020,17,3805,-539,-258,-841
1114,-156,4023,-506,-277,-842
1179,-228,4098,-467,-268,-818
1179,-228,4098,-467,-268,-818
1259,-328,4058,-465,-260,-780
1326,-454,4234,-484,-270,-742
1351,-557,4475,-456,-252,-709
1401,-715,4485,-438,-208,-667
1436,-925,4543,-455,-189,-594
1448,-949,4717,-457,-179,-506
1446,-980,4716,-421,-142,-449
1480,-1156,4720,-393,-105,-420
1520,-1433,4857,-358,-77,-384
1582,-1618,4930,-316,-30,-321
1613,-1752,5139,-268,15,-258
1596,-1904,5350,-196,87,-172
1564,-1782,5415,-127,176,-68
1512,-1658,5422,-48,255,-1
1481,-1558,5462,38,325,44
1473,-1339,5510,121,394,92
1485,-971,5641,193,453,126
1436,-522,5837,232,527,140
1452,-234,5843,217,628,143
1437,-309,5728,164,716,143
1306,-375,5692,91,781,197
1183,-194,5607,48,850,267
1059,-31,5425,29,920,303
921,5,5317,18,982,314
763,-33,5175,36,1046,321
579,82,4998,76,1107,342
420,471,4747,98,1150,360
273,805,4397,97,1158,320
160,592,4107,66,1119,228
97,142,4014,20,1047,192
24,139,4046,-21,983,253
-25,476,4059,-19,946,309
23,623,3938,3,938,290
115,584,3874,-16,924,261
115,491,3847,-47,903,253
3,359,3697,-57,899,261
-133,370,3347,-48,884,281
-283,502,3016,-57,824,295
-412,613,2794,-58,717,275
-492,739,2674,-40,591,224
-459,669,2594,-48,475,148
-399,363,2526,-83,367,99
-395,129,2458,-142,263,118
-432,96,2335,-179,161,178
-383,234,2245,-157,49,214
-344,339,2247,-132,-56,198
-340,374,2240,-86,-146,140
-326,206,2195,-36,-231,68
-319,-62,2222,3,-324,23
-298,-129,2195,30,-418,38
-301,11,2217,27,-527,77
-274,152,2287,16,-641,84
-209,159,2393,-20,-750,65
-82,124,2735,-17,-857,36
25,-1,3064,24,-923,7
83,17,3301,59,-955,18
129,329,3509,119,-967,17
232,486,3670,186,-965,-35
317,492,3860,215,-965,-84
387,497,3899,222,-959,-102
427,490,3832,198,-974,-89
524,431,3787,136,-1014,-56
648,169,3799,24,-1069,-11
779,-23,4115,-70,-1111,68
773,-161,3878,-87,-1094,122
643,-165,3661,-38,-1123,129
626,-91,3796,58,-1153,68
716,71,3963,205,-1150,-27
860,424,4119,331,-1148,-104
860,424,4119,331,-1148,-104
1071,371,4241,341,-1150,-158
1181,74,4464,258,-1167,-133
1261,112,4678,182,-1170,-37
1396,255,4771,132,-1148,40
1446,226,4802,69,-1105,90
1455,259,4712,56,-1052,125
1472,350,4656,81,-972,116
1432,514,3615,147,-966,63
1509,567,4155,37,-1120,5
1634,212,4823,-46,-1139,-31
1730,-50,4963,-30,-1061,-9
1709,-126,4867,-16,-969,50
1658,-164,4645,44,-907,104
1685,-9,4521,86,-875,134
1720,220,4550,95,-849,115
1836,626,4598,119,-840,53
1935,557,4908,143,-831,-36
2033,511,5176,133,-777,-52
2086,439,5131,89,-676,-24
1994,122,4834,42,-588,24
1832,86,4598,32,-560,110
1790,363,4423,46,-557,153
1799,350,4315,99,-584,103
1852,561,4771,157,-620,51
1977,756,4881,179,-561,1
2048,531,4708,142,-519,-31
2078,293,4825,30,-494,-2
2081,210,4685,-9,-447,35
2104,321,4741,-35,-422,59
2107,531,4913,-38,-382,47
2142,584,4954,-4,-323,6
2205,446,4919,6,-272,-16
2233,381,5006,2,-229,-2
2308,446,5014,22,-168,16
2356,487,5026,28,-98,19
2297,518,5018,34,-21,8
2211,469,4777,48,57,-10
2120,371,4541,35,96,-18
2048,468,4539,9,99,-7
1986,478,4446,-10,114,-17
1988,273,4335,-49,118,-23
1983,157,4402,-79,116,6
1967,243,4320,-70,138,40
1963,279,4179,-63,163,42
1962,184,4196,-43,180,19
1949,180,4209,-4,212,6
1906,251,4119,20,252,0
1852,257,3975,17,272,-6
1809,190,3894,-7,270,-3
1765,188,3902,-43,252,15
1690,217,3883,-64,239,29
1647,233,3798,-63,233,31
1640,135,3716,-69,215,33
1630,127,3711,-81,181,54
1631,243,3698,-93,145,78


-442,-496,3693,161,-497,144
-407,-443,3499,170,-531,166
-366,-567,3510,93,-610,196
-324,-605,3918,35,-663,269
-360,-327,3820,26,-652,328
-397,-208,3745,53,-677,310
-265,-347,4049,95,-724,271
-175,-353,4306,116,-721,299
-189,-181,4247,119,-691,361
-196,-12,4085,87,-686,417
-162,-42,3982,35,-718,451
-101,-326,3764,9,-751,464
-14,-432,3947,-7,-804,493
53,-373,4275,103,-806,483
157,-394,4196,247,-738,450
192,-555,4039,314,-692,446
187,-443,3951,333,-684,493
159,-346,3791,330,-691,524
119,-414,3602,311,-720,537
125,-364,3674,302,-769,549
179,-115,3939,351,-806,530
312,-47,4098,418,-801,486
418,-167,4066,479,-782,472
493,-25,3858,416,-781,534
508,19,4017,347,-857,573
686,-68,4875,414,-838,614
785,368,4296,564,-711,627
713,638,4004,580,-734,575
759,443,4277,447,-790,535
878,224,4494,349,-795,551
961,214,4579,383,-779,577
955,305,4573,386,-751,604
974,455,4567,367,-724,631
961,669,4675,360,-704,640
930,936,4775,364,-669,620
930,936,4775,364,-669,620
845,1013,4779,369,-626,571
837,1014,4829,366,-600,540
830,870,4859,349,-576,534
792,1004,4872,295,-545,574
717,1381,4713,275,-534,570
655,1422,4650,297,-550,488
638,1356,4696,306,-565,409
746,1428,4844,296,-563,359
935,1601,5115,300,-542,308
1095,1733,5441,314,-479,242
1162,1948,5732,331,-378,187
1143,2377,5856,324,-253,134
1084,2731,5838,283,-135,44
999,2761,5799,231,-50,-73
889,2613,5606,151,9,-162
805,2507,5310,43,26,-205
818,2379,5108,-85,0,-230
737,1973,4893,-177,-36,-252
831,1820,4703,-236,-77,-225
991,1891,4731,-289,-116,-205
1097,2064,4799,-335,-115,-216
1103,2239,4669,-368,-66,-276
1109,2236,4408,-409,-9,-382
1072,1929,4203,-455,22,-502
964,1682,3976,-492,34,-573
915,1548,3804,-545,15,-594
888,1393,3769,-614,-27,-592
835,1314,3711,-663,-64,-580
794,1270,3575,-664,-96,-596
767,1260,3563,-644,-136,-641
764,1352,3589,-629,-161,-714
803,1339,3628,-602,-173,-826
872,1191,3644,-590,-182,-928
961,1010,3671,-604,-194,-989
977,894,3743,-648,-203,-1014
915,687,3719,-695,-197,-1032
867,351,3575,-707,-210,-1035
925,124,3620,-732,-250,-994
1019,8,3808,-760,-289,-943
1088,-100,3971,-744,-297,-910
1142,-390,3944,-708,-272,-895
1172,-761,3899,-657,-262,-867
1188,-1005,3847,-610,-270,-810
1277,-1139,3885,-579,-305,-738
1461,-1335,4083,-545,-335,-682
1613,-1561,4343,-466,-321,-650
1710,-1576,4516,-339,-272,-614
1774,-1623,4576,-217,-213,-583
1793,-1720,4614,-189,-171,-522
1865,-1792,4739,-197,-147,-435
1925,-1927,4968,-179,-116,-357
1905,-1921,5256,-130,-60,-273
1882,-1773,5352,-79,26,-183
1853,-1620,5366,-81,103,-110
1801,-1839,5512,-35,169,-77
1801,-1990,5616,33,254,0
1809,-1828,5729,120,351,104
1763,-1503,5760,210,466,196
1725,-1154,5681,267,587,254
1622,-911,5596,278,685,289
1409,-641,5573,262,761,327
1236,-224,5475,231,829,368
1129,-79,5293,198,883,352
992,-362,5123,183,909,313
810,-429,5052,192,920,335
684,-231,4946,221,942,377
666,-29,4804,228,960,404
692,-54,4691,173,966,420
663,-90,4803,109,955,462
663,-90,4803,109,955,462
664,29,4982,95,989,508
560,260,4997,168,1074,514
374,662,4734,245,1181,491
208,790,4270,268,1247,414
-3,538,3770,242,1233,336
-224,244,3377,193,1141,325
-347,203,3152,159,997,359
-314,349,3162,155,840,381
-195,410,3229,141,712,376
-97,371,3290,89,610,390
44,391,3292,26,538,425
87,339,3278,-48,494,448
-40,312,3091,-84,465,463
-178,538,2863,-68,418,453
-228,681,2660,-11,359,358
-274,481,2444,37,288,224
-313,304,2267,57,182,147
-252,299,2205,56,55,121
-95,180,2303,8,-71,110
19,91,2515,-40,-179,129
52,169,2582,-31,-240,145
-57,260,2402,-2,-288,133
-149,361,2246,22,-377,100
-170,371,2144,10,-507,64
-49,291,2176,-96,-669,51
136,145,2785,-229,-827,53
189,134,3402,-162,-884,33
189,152,3469,-55,-842,9
197,266,3318,-4,-817,-1
196,392,3358,6,-850,-25
217,364,3431,13,-895,-61
278,140,3445,10,-935,-78
364,23,3601,-3,-986,-41
446,86,3814,-7,-1014,13
426,171,3866,24,-1019,35
463,194,3922,85,-1016,17
578,236,3738,136,-1022,-29
767,341,3906,178,-1092,-88
980,469,4365,137,-1125,-116
1134,655,4677,120,-1092,-140
1214,546,4621,135,-1023,-186
1290,-31,4434,88,-982,-184
1305,-549,4357,16,-979,-76
1239,-411,4392,10,-976,70
1195,206,4441,91,-960,126
1213,583,4430,180,-929,55
1281,457,4247,194,-909,-45
1353,249,4553,154,-932,-90
1475,255,4417,147,-897,-98
1513,363,4285,128,-960,-116
1541,45,4867,38,-999,-109
1555,-132,4904,15,-930,-36
1492,-18,4666,44,-857,41
1440,254,4431,62,-825,77
1501,452,4431,74,-826,51
1583,414,4600,95,-819,-17
1702,321,4530,85,-785,-57
1776,388,4604,36,-785,-69
1751,303,4848,-9,-751,-84
1729,120,4611,23,-691,-75
1780,-3,4541,33,-670,-37
1732,21,4637,36,-661,8
1707,446,4635,51,-634,39
1750,619,4563,17,-614,3
1816,317,4669,-5,-602,-67
1868,-12,4726,14,-564,-82
1976,0,4772,50,-515,-36
2014,267,4754,81,-464,-5
2001,442,4688,115,-431,-11
2001,442,4688,115,-431,-11
2111,464,4718,127,-426,-17
2251,518,4916,40,-410,2
2288,466,4926,-37,-366,19
2237,251,4824,-106,-308,37
2153,175,4591,-120,-271,70
2144,308,4587,-168,-256,86
2160,283,4707,-162,-221,51
2170,210,4760,-90,-155,8
2162,262,4750,-15,-78,-15
2118,210,4600,27,-9,-34
2075,224,4486,40,26,-23
2019,156,4350,32,44,-12
1953,130,4250,12,45,16
1944,193,4204,8,38,37
1945,160,4239,-7,34,45
1924,244,4325,-13,44,55
1900,376,4263,-12,73,51
1864,333,4165,-22,92,30
1843,312,4102,-41,94,21
1883,279,4095,-51,93,10
1910,149,4123,-70,99,4
1887,112,4128,-73,116,20
1852,134,4059,-59,134,33
1806,155,3944,-46,140,41


-375,-553,2918,-595,-795,294
-380,-624,2836,-595,-886,315
-322,-721,3101,-577,-999,321
-277,-696,3622,-479,-1075,327
-223,-667,3719,-346,-1043,352
-217,-559,3408,-297,-1009,389
-192,-603,3456,-246,-1056,393
-192,-603,3456,-246,-1056,393
-58,-693,3782,-177,-1087,422
71,-555,3826,-173,-1090,461
126,-292,4140,-140,-1123,469
235,10,4608,-85,-1114,457
337,134,4786,-9,-1048,417
402,45,4777,38,-972,393
445,-9,4714,85,-913,409
467,-28,4492,107,-875,454
563,-4,4405,86,-883,513
668,-103,4606,77,-901,556
669,91,4596,111,-879,608
596,348,4393,115,-865,605
632,-26,4889,233,-831,561
690,-36,4169,323,-721,568
625,94,3716,293,-779,550
655,-68,4078,139,-888,535
838,-139,4607,18,-915,571
927,71,4866,27,-858,609
894,120,4657,92,-769,603
814,-25,4442,120,-726,600
748,7,4396,155,-740,631
764,159,4502,212,-757,644
858,323,4575,273,-752,611
975,476,4852,348,-744,552
1022,820,5055,390,-694,504
1055,1210,5080,395,-623,443
1113,1228,5084,392,-571,341
1172,1078,5165,352,-539,285
1206,1099,5250,266,-506,305
1183,1249,5374,168,-462,341
1126,1677,5647,169,-406,336
1089,2155,5687,238,-307,250
1033,2228,5516,266,-211,106
991,2178,5427,238,-159,-7
968,2263,5404,155,-135,-71
966,2199,5308,38,-113,-121
924,2163,5157,-80,-101,-148
936,2117,5016,-195,-105,-173
937,1804,4891,-314,-113,-199
859,1801,4817,-368,-116,-197
876,1939,4618,-389,-108,-229
908,1819,4426,-439,-110,-300
961,1819,4425,-492,-119,-364
995,1794,4398,-515,-98,-457
968,1585,4252,-519,-58,-567
937,1452,4074,-514,-29,-651
874,1331,3865,-504,-25,-713
838,1213,3719,-511,-57,-745
888,1114,3756,-547,-109,-748
936,1049,3849,-585,-147,-739
940,899,3801,-642,-165,-724
908,760,3739,-680,-182,-712
918,824,3809,-666,-197,-740
987,923,4028,-619,-186,-830
1052,729,4036,-579,-131,-949
1032,365,4081,-566,-79,-1012
981,76,3953,-546,-31,-1013
934,-142,3657,-516,-25,-984
972,-413,3538,-521,-82,-933
1098,-528,3773,-531,-159,-860
1234,-696,3937,-510,-195,-809
1351,-1027,3979,-487,-203,-751
1447,-1329,3948,-473,-206,-665
1606,-1522,3983,-450,-222,-574
1738,-1731,4114,-417,-238,-502
1841,-2043,4267,-389,-236,-453
2001,-2550,4571,-322,-216,-409
2078,-2879,4909,-181,-154,-326
2078,-2879,4909,-181,-154,-326
2073,-2724,5054,-8,-51,-209
2075,-2435,5042,143,45,-117
2033,-2376,5073,192,114,-48
2052,-2463,5278,216,156,36
2041,-2445,5608,254,215,164
1968,-2030,5779,286,312,296
1902,-1954,5880,339,422,365
1799,-1647,6116,418,528,431
1612,-877,6227,499,658,465
1480,-154,6087,539,791,421
1381,7,5897,500,889,312
1220,-148,5708,425,952,233
979,-304,5386,325,984,230
841,-302,5152,222,969,285
781,-128,5194,165,944,331
660,150,5162,142,965,351
557,322,4908,133,1012,329
466,248,4599,121,1041,296
297,218,4304,104,1038,297
157,342,4020,85,1007,306
66,467,3892,115,955,283
-45,530,3666,144,922,245
-169,650,3339,144,877,202
-257,707,3109,129,801,143
-347,593,2907,108,711,84
-404,456,2695,63,611,69
-422,401,2499,15,498,86
-338,277,2259,-20,380,102
-248,29,2148,-98,244,142
-160,218,2225,-110,108,213
-1,555,2221,-58,14,215
135,411,2078,-18,-61,126
264,170,2141,13,-164,54
466,51,2401,59,-244,17
544,-186,2457,114,-273,-4
562,-215,2441,149,-305,33
564,-2,2530,141,-355,94
464,263,2667,148,-405,113
324,436,2759,175,-447,80
290,543,2840,196,-500,29
360,680,3058,187,-567,-13
445,698,3367,166,-626,-71
529,413,3519,128,-657,-112
506,206,3635,49,-687,-73
453,318,3572,-33,-722,11
425,249,3501,-119,-772,56
359,200,3595,-134,-818,61
332,522,3374,-63,-864,21
479,594,3383,-13,-954,-83
692,231,3636,-45,-1030,-167
849,-100,3747,-132,-1063,-144
941,-282,3863,-238,-1079,-62
1003,-253,4137,-202,-1078,-20
1018,-230,4229,-72,-1031,-43
989,-147,4299,41,-974,-79
973,115,4343,169,-933,-127
1001,158,4261,251,-910,-190
1058,155,4236,298,-928,-230
1160,365,4651,322,-956,-235
1279,454,3893,272,-930,-242
1323,499,3852,168,-1128,-242
1532,239,4783,-33,-1253,-195
1779,100,5256,-81,-1204,-117
1885,253,5358,13,-1083,-60
1825,260,5047,0,-942,-16
1751,264,4481,-60,-870,-1
1678,97,4316,-94,-899,-46
1731,-66,4615,-82,-921,-98
1874,33,4918,11,-879,-144
1874,33,4918,11,-879,-144
1925,67,4818,80,-800,-179
1988,20,4911,153,-774,-182
2036,-188,4931,134,-744,-122
2088,-216,4855,33,-707,-7
2119,-151,4826,-39,-672,77
2077,-142,4805,-65,-630,112
2056,8,4751,-47,-584,102
2060,170,4845,28,-557,35
2151,280,5014,113,-512,-43
2262,135,5029,123,-447,-97
2313,-41,5109,68,-391,-66
2304,18,5132,63,-334,3
2269,224,5006,29,-272,72
2303,313,4847,-26,-223,85
2289,91,4893,-79,-185,64
2254,31,4921,-70,-130,78
2262,90,4783,-44,-64,99
2195,125,4684,-34,-16,106
2107,252,4603,-7,24,98
2050,286,4453,8,65,70
1984,125,4314,-12,86,49
1876,54,4234,-47,88,73
1791,206,4260,-60,89,97
1786,255,4252,-42,112,73
1788,209,4197,-9,138,37
1796,318,4167,14,155,24
1840,377,4114,12,168,8
1820,190,4021,-12,170,-3
1801,65,3968,-51,161,25
1787,90,3931,-70,153,68
1776,103,3865,-81,146,91
1737,102,3828,-91,139,100
1678,182,3780,-83,136,93
1625,185,3696,-64,134,58
1598,47,3585,-47,114,23
1604,-19,3554,-42,75,21
1669,36,3592,-53,30,36
1731,127,3736,-82,-5,48
1782,272,3922,-77,-16,38
1769,246,3989,-74,6,5
1753,121,4007,-58,36,-15
1710,86,3949,-49,59,0
1656,175,3811,-53,65,24
1633,228,3730,-64,38,30
1605,183,3705,-85,0,23
1618,121,3734,-106,-33,20
1690,16,3737,-126,-61,17
1733,-13,3853,-156,-91,34
1754,73,3954,-154,-96,47
1776,106,3995,-130,-84,36
1817,152,4075,-84,-71,13
1826,153,4038,-58,-46,-5
1851,93,3949,-57,-33,-14


148,-723,4246,205,-892,429
78,-894,4124,229,-877,496
18,-758,3899,292,-884,556
76,-670,3815,342,-908,547
206,-567,4114,426,-942,498
333,-70,4653,540,-936,453
488,231,4831,598,-858,388
555,209,4591,546,-795,342
506,140,4630,398,-829,352
596,-53,5281,353,-822,403
672,-146,4514,329,-731,484
611,105,4275,213,-820,566
568,139,4688,42,-896,599
594,83,4847,30,-867,586
631,37,4714,135,-805,540
659,190,4552,219,-767,505
748,405,4521,227,-760,465
770,228,4514,182,-759,416
699,-38,4372,160,-749,401
599,-310,4167,176,-736,424
586,-145,3932,198,-737,466
598,181,3978,233,-788,454
665,393,4327,223,-839,416
764,324,4627,226,-841,372
818,164,4784,265,-800,346
867,240,4770,328,-750,366
887,533,4794,380,-710,377
874,761,4864,413,-679,342
934,926,4882,447,-645,285
1031,972,5052,464,-619,220
1194,949,5322,493,-578,166
1290,1014,5493,505,-500,143
1300,1300,5607,466,-414,139
1252,1563,5642,399,-334,113
1204,1553,5580,335,-266,62
1147,1492,5477,284,-218,24
1087,1703,5516,231,-188,3
1034,1951,5520,196,-147,-50
1018,1966,5366,146,-96,-135
998,1878,5214,70,-66,-202
966,1890,5137,-10,-57,-234
989,1952,5042,-75,-46,-274
1040,1903,4893,-153,-29,-331
1095,1788,4791,-230,-9,-394
1116,1622,4677,-318,9,-432
1046,1491,4427,-393,29,-444
987,1509,4210,-434,21,-456
950,1641,4222,-444,0,-506
950,1641,4222,-444,0,-506
972,1673,4258,-440,0,-608
963,1484,4176,-442,18,-718
949,1196,4075,-462,31,-798
880,924,3966,-475,34,-838
818,924,3854,-499,31,-842
777,1025,3756,-525,19,-865
801,869,3658,-553,-6,-913
825,487,3614,-617,-50,-924
825,96,3537,-663,-108,-872
901,-194,3471,-702,-178,-776
1010,-182,3569,-731,-249,-688
1146,-104,3906,-717,-279,-681
1247,-148,4073,-634,-244,-744
1311,-224,4141,-543,-186,-819
1359,-329,4119,-439,-135,-884
1374,-707,3917,-391,-102,-920
1392,-1151,3886,-404,-115,-879
1412,-1219,4079,-391,-143,-783
1439,-1194,4207,-364,-145,-691
1460,-1223,4212,-321,-129,-626
1513,-1323,4154,-283,-111,-581
1597,-1552,4159,-271,-120,-528
1703,-1762,4278,-273,-136,-439
1828,-1963,4376,-268,-139,-327
1987,-2079,4596,-251,-130,-218
2068,-2169,4834,-219,-80,-128
2061,-2145,5018,-167,0,-37
2004,-2089,5087,-95,91,29
1879,-2061,5114,-16,168,93
1808,-1876,5283,46,231,148
1720,-1690,5513,170,313,164
1663,-1339,5583,277,425,168
1589,-1390,5398,326,536,138
1469,-1571,5402,345,584,153
1400,-1264,5633,390,616,232
1411,-922,5789,457,688,276
1454,-864,5845,551,787,277
1370,-926,5781,616,899,308
1227,-754,5652,704,1007,374
993,-269,5479,833,1101,412
660,319,5168,866,1188,410
446,764,4696,799,1241,356
343,748,4391,665,1218,256
218,512,4343,584,1149,171
59,432,4225,530,1095,153
-71,530,4033,460,1043,177
-39,625,3899,422,973,187
117,512,3933,388,912,174
156,416,3932,309,881,207
105,555,3806,245,868,270
-21,815,3634,249,853,274
-140,1111,3414,292,830,201
-221,1131,3122,256,793,97
-359,1039,2843,197,707,14
-446,932,2463,139,587,-43
-432,637,2158,29,427,-76
-243,314,2147,-87,228,-58
28,82,2400,-208,50,28
183,13,2632,-271,-54,135
272,162,2555,-262,-93,211
243,360,2320,-217,-125,217
182,524,2113,-161,-188,155
201,439,1976,-122,-276,39
238,124,2023,-116,-381,-57
206,-67,2181,-114,-490,-73
183,9,2338,-117,-579,-26
248,81,2458,-96,-654,0
305,27,2521,-71,-722,5
293,69,2615,-39,-792,11
293,69,2615,-39,-792,11
286,234,2749,0,-866,6
351,265,2817,-4,-933,-10
457,156,3106,-58,-1006,-19
548,126,3448,-42,-1049,-17
577,79,3622,-17,-1049,-1
554,185,3586,16,-1041,26
538,389,3589,39,-1049,46
608,524,3286,0,-1065,26
648,516,3155,-58,-1172,-14
735,514,3580,-135,-1291,-44
794,462,4007,-168,-1324,-77
879,434,4099,-122,-1301,-115
1022,219,4064,-109,-1286,-138
1240,-18,4276,-145,-1292,-102
1338,-84,4535,-149,-1278,-33
1366,93,4625,-86,-1225,22
1382,275,4608,-4,-1167,29
1433,371,4414,22,-1081,0
1353,363,3538,17,-1155,-62
1445,208,4284,-51,-1349,-109
1572,-202,4782,-102,-1358,-114
1705,131,5052,12,-1281,-82
1786,582,4811,167,-1166,-141
1876,421,4442,185,-1134,-222
2054,131,4650,48,-1174,-209
2243,-50,5169,-113,-1176,-118
2338,-24,5501,-117,-1093,-44
2341,116,5544,-6,-963,-12
2335,200,5201,103,-834,-26
2351,66,4991,202,-796,-47
2444,185,5025,160,-784,-4
2505,317,4964,8,-763,12
2503,156,5198,-125,-740,-8
2576,147,5543,-204,-661,-13
2659,232,5749,-163,-529,-38
2642,162,5547,-115,-376,-62
2549,60,5250,-121,-270,-43
2473,160,5150,-126,-221,-7
2433,235,5125,-116,-168,0
2389,118,5048,-99,-97,-12
2322,-65,4877,-92,-26,-3
2206,-93,4738,-70,23,31
2131,8,4561,-39,66,60
2058,51,4393,-33,88,61
2002,32,4298,-42,96,52
1943,-77,4207,-55,109,42
1891,-144,4098,-55,118,47
1879,-78,4020,-38,122,53
1862,28,4015,-30,122,50
1841,87,4011,-16,126,32
1825,1,3886,-13,131,15
1813,-21,3839,-34,115,30
1849,-56,3840,-56,88,55
1868,-123,3882,-67,73,79
1871,6,3936,-53,70,107
1918,125,3959,-31,80,105
1916,81,4004,-23,102,85
1863,117,3968,-6,133,74
1865,115,3830,6,155,58
1803,40,3778,-3,147,49
1746,78,3756,-20,126,64
1717,76,3701,-32,101,66
1740,19,3733,-32,68,64
1759,66,3848,-20,46,67
1771,155,3871,-10,51,65
1793,176,3865,-9,57,50
1846,109,3884,-6,56,37
1883,27,3898,-14,55,50
1883,27,3898,-14,55,50
1876,55,3920,-38,55,79
1846,184,3963,-42,54,95
1814,254,3895,-33,62,77
1794,221,3803,-39,56,48
1786,158,3819,-51,34,26
1744,172,3884,-45,18,13
1735,177,3905,-39,18,0
1753,68,3836,-40,24,-18
1760,-27,3831,-44,18,-16
1776,58,3866,-49,12,8
1809,143,3861,-48,11,12
1837,90,3847,-41,9,-5


-349,-1000,3748,80,-712,264
-324,-496,3846,83,-729,391
-324,-217,3693,61,-732,426
-310,-421,3625,0,-772,420
-225,-572,3661,-60,-834,453
-147,-637,3895,-149,-888,528
-161,-425,4059,-122,-899,572
-171,-241,3923,-61,-875,543
-139,-415,3924,26,-883,467
-73,-539,4163,135,-879,439
-10,-395,3988,242,-852,448
102,-362,3903,302,-876,458
253,-289,4222,286,-922,496
359,140,4766,291,-927,550
446,604,4807,312,-850,545
406,495,4532,278,-795,483
383,118,4961,246,-791,492
422,263,4654,157,-672,589
261,79,3779,130,-672,610
255,-5,3857,120,-823,649
255,-5,3857,120,-823,649
388,113,4256,30,-907,688
543,237,4467,61,-921,665
655,277,4610,116,-908,623
789,294,4887,157,-873,592
860,151,4974,213,-789,568
831,148,4935,254,-697,582
771,536,4938,329,-620,596
747,913,4945,390,-552,557
704,874,4759,429,-494,474
710,682,4702,395,-485,441
739,644,4863,348,-487,454
706,739,5026,365,-458,464
669,1096,4982,405,-398,454
609,1437,4843,416,-366,386
548,1557,4901,380,-362,292
508,1658,5009,362,-351,202
541,1655,4970,345,-320,111
606,1315,4880,261,-297,63
621,1298,5048,161,-298,112
556,1638,5152,121,-270,162
450,1943,5007,97,-223,154
432,2181,4846,93,-212,87
512,2194,4804,64,-226,-14
641,2085,4876,13,-238,-104
768,2158,5042,-36,-230,-169
833,2244,5134,-87,-186,-242
816,2126,5010,-153,-127,-326
784,2045,4934,-205,-93,-397
767,2085,4884,-247,-69,-454
814,1966,4717,-338,-47,-498
832,1782,4718,-460,-51,-512
773,1750,4737,-563,-44,-507
704,1552,4525,-640,-18,-526
578,1339,4313,-679,-13,-554
482,1342,4127,-666,-24,-593
468,1292,4022,-645,-47,-673
441,1204,4009,-621,-69,-762
478,1146,3937,-594,-83,-841
638,862,3796,-613,-106,-910
769,418,3862,-683,-155,-917
836,247,4035,-727,-190,-848
837,274,3961,-747,-194,-771
859,358,3979,-746,-211,-739
914,420,4071,-704,-212,-765
973,589,4164,-623,-191,-845
1003,471,4200,-567,-144,-968
1006,116,4136,-525,-97,-1064
1011,-360,3995,-528,-77,-1069
1036,-639,3932,-566,-101,-970
1107,-464,4046,-592,-150,-835
1225,-439,4100,-605,-175,-770
1345,-883,4107,-602,-182,-750
1442,-1226,4284,-584,-184,-686
1474,-1418,4317,-531,-147,-609
1477,-1599,4227,-471,-104,-541
1507,-1712,4126,-414,-88,-474
1540,-1835,4140,-395,-96,-414
1610,-2172,4218,-382,-110,-354
1718,-2629,4370,-386,-116,-257
1832,-2913,4615,-369,-107,-112
1845,-2799,5027,-283,-69,33
1809,-2311,5418,-112,14,116
1830,-1925,5528,62,138,110
1946,-1917,5711,115,242,94
2026,-2082,6034,140,335,132
1982,-2099,6262,144,460,242
1843,-1843,6344,180,611,367
1698,-1511,6229,256,775,447
1698,-1511,6229,256,775,447
1535,-1275,6120,338,921,476
1342,-1063,5983,432,1048,479
1084,-815,5702,493,1159,476
790,-595,5361,560,1233,451
521,-424,4974,586,1259,416
339,-310,4761,552,1225,392
248,-140,4829,533,1164,367
227,109,4990,513,1131,343
180,279,4993,468,1148,324
84,348,4830,439,1172,302
90,320,4556,363,1187,302
141,147,4343,242,1176,332
16,181,4348,149,1150,401
-121,543,4392,160,1150,438
-289,843,4085,204,1198,393
-482,1083,3544,217,1203,295
-591,1041,3212,213,1121,167
-670,931,3137,129,1001,81
-783,702,3066,15,904,43
-856,425,2741,-37,811,61
-797,329,2546,-75,675,118
-650,371,2639,-111,532,166
-527,324,2747,-142,446,193
-534,22,2606,-142,410,211
-638,135,2299,-46,358,247
-703,660,2091,6,273,248
-741,896,1887,7,172,143
-691,702,1835,31,33,-10
-583,195,1945,39,-96,-107
-442,-75,2051,30,-200,-84
-324,-115,1995,3,-290,-15
-368,-53,1970,-18,-400,50
-430,120,1956,-41,-506,78
-416,139,1983,-46,-618,52
-344,94,2329,-44,-743,19
-291,97,2762,-38,-818,0
-275,143,2852,0,-835,-26
-201,192,2937,13,-862,-65
-163,143,3359,128,-917,-135
-91,146,3549,242,-912,-161
-19,177,3306,227,-911,-136
67,144,3399,132,-985,-83
182,203,3577,49,-1052,-22
304,278,4021,15,-1089,8
320,12,3859,-43,-1030,28
398,130,3493,-50,-1091,54
460,92,3961,-101,-1224,16
610,-20,4480,-154,-1254,-14
764,66,4690,-54,-1213,-74
848,60,4682,19,-1146,-136
918,39,4720,28,-1099,-147
1002,175,4852,38,-1070,-116
1075,140,4874,0,-1018,-71
1101,152,4606,-70,-981,-3
1113,199,4657,-102,-995,20
1096,38,4772,-83,-974,-4
1061,-94,4713,-28,-922,-32
1020,-114,4614,24,-889,-44
1007,-91,4550,40,-880,-37
1015,-165,4523,34,-882,-29
1050,-326,4452,23,-872,-10
1042,-275,4489,43,-861,24
1057,25,4498,89,-836,42
1036,283,4464,103,-816,24
1042,341,4446,81,-820,-11
1139,275,4708,41,-835,-38
1259,125,4312,21,-818,-57
1344,230,4420,-12,-918,-69
1506,96,5149,-101,-954,-78
1616,98,5344,-122,-860,-46
1616,98,5344,-122,-860,-46
1630,155,5183,-54,-755,-36
1605,-53,4897,-45,-688,-20
1614,-112,4807,-103,-671,27
1577,-42,4801,-114,-664,49
1597,-62,4724,-86,-643,28
1680,-191,4686,-64,-622,0
1664,-87,4721,-55,-612,-16
1664,96,4914,3,-598,-49
1769,106,5037,36,-551,-77
1867,75,5095,-16,-506,-57
1895,117,5218,-138,-459,-6
1894,81,5295,-167,-408,17
1842,-49,5223,-138,-347,34
1822,-35,5125,-108,-284,53
1841,8,5012,-33,-224,44
1915,-44,4896,8,-174,25
1975,-1,4921,12,-141,34
1943,112,4934,-7,-86,41
1881,118,4844,-13,-17,19
1835,0,4712,-4,38,-6
1750,-57,4567,-5,80,-9
1670,27,4464,0,99,1
1613,-8,4280,-12,109,5
1544,-116,4155,-20,95,20
1520,-20,4068,-2,62,50
1548,101,4137,-57,37,55
1535,-45,4163,-99,40,32
1539,-96,4109,-79,49,28
1555,-28,4083,-61,56,24
1552,-3,4057,-55,61,6
1544,-78,3988,-54,63,-3
1525,-164,3904,-64,57,9
1502,-122,3923,-77,36,38
1496,-27,3920,-68,18,49
1516,-16,3900,-58,2,39
1563,4,3974,-75,-12,36
1575,48,4052,-94,-17,33
1550,33,4044,-95,-8,22
1503,-9,3955,-97,-9,18


-471,-238,3827,91,-454,369
-468,152,3914,82,-481,361
-440,84,3929,57,-507,306
-416,-215,3986,48,-536,266
-406,-273,4074,29,-545,300
-333,-171,4008,54,-535,344
-264,-311,3798,83,-533,359
-242,-395,3786,0,-572,422
-246,-187,4038,-54,-619,480
-253,-239,4063,-4,-618,480
-265,-609,3882,50,-614,487
-314,-558,3812,60,-636,578
-273,-15,3726,86,-666,629
-256,223,3684,143,-721,547
-174,70,4319,255,-740,448
14,15,3939,375,-664,405
84,5,3680,342,-710,416
157,-83,3984,173,-796,505
206,85,4303,9,-818,634
149,229,4381,16,-791,676
95,251,4188,98,-751,646
54,260,4083,149,-733,600
42,251,3954,199,-731,554
103,78,3951,228,-755,526
291,66,4284,263,-783,542
420,282,4506,312,-762,576
469,509,4566,322,-720,600
465,575,4545,300,-684,612
403,269,4374,291,-657,621
302,180,4148,312,-653,657
246,600,4116,340,-677,665
297,714,4314,415,-718,603
479,851,4794,492,-740,555
596,1081,5018,510,-695,527
633,1245,4967,468,-635,491
628,1095,5157,443,-600,443
688,982,5058,452,-537,432
685,885,4763,418,-513,457
644,1046,4805,349,-535,511
621,1360,4927,300,-537,527
649,1324,4896,287,-514,477
701,1176,4923,319,-497,426
741,1417,5120,365,-472,404
823,1779,5256,411,-406,348
875,1874,5292,446,-325,254
831,1948,5204,435,-248,194
769,2175,5084,380,-194,160
763,2322,5016,302,-168,115
723,2216,4973,216,-153,61
646,2294,4945,129,-139,42
589,2470,4823,53,-129,7
556,2561,4689,-20,-138,-61
585,2697,4682,-92,-164,-144
585,2697,4682,-92,-164,-144
670,2636,4663,-177,-179,-239
751,2460,4624,-281,-188,-305
879,2277,4554,-407,-189,-333
947,2102,4558,-533,-181,-329
884,2134,4488,-611,-152,-329
816,2302,4321,-639,-120,-387
820,2248,4241,-647,-108,-498
847,2017,4241,-660,-101,-608
843,1906,4174,-684,-86,-679
810,1900,4053,-710,-77,-748
763,1752,3932,-738,-75,-831
685,1520,3836,-744,-80,-914
629,1283,3696,-747,-95,-971
642,988,3569,-778,-139,-981
732,806,3559,-824,-207,-948
866,674,3665,-884,-272,-901
1007,482,3926,-958,-303,-864
1030,70,3870,-994,-282,-831
1015,-248,3779,-1011,-280,-761
983,-320,3764,-993,-298,-694
1000,-363,3790,-919,-309,-688
1113,-450,3921,-817,-314,-728
1246,-565,4111,-725,-307,-777
1377,-855,4288,-666,-282,-804
1447,-1217,4428,-645,-244,-778
1412,-1498,4462,-631,-208,-695
1416,-1709,4444,-611,-186,-597
1474,-2097,4625,-588,-185,-493
1525,-2310,4805,-535,-170,-350
1587,-2168,4974,-477,-141,-200
1620,-1990,5228,-417,-103,-98
1649,-2033,5376,-331,-29,-52
1645,-2210,5439,-231,63,-26
1615,-2219,5557,-110,161,8
1536,-2141,5609,26,276,41
1433,-1884,5623,164,397,70
1342,-1598,5565,280,509,87
1264,-1407,5483,327,597,113
1147,-1365,5453,341,654,168
1090,-1245,5496,332,705,255
1030,-1069,5454,336,763,340
974,-848,5349,335,820,419
858,-585,5262,336,870,466
660,-368,5097,335,913,480
456,-10,4944,356,935,473
309,373,4779,379,944,428
201,521,4547,373,929,343
159,343,4338,306,882,283
170,153,4385,181,808,305
208,232,4511,101,760,370
195,421,4466,67,762,406
130,587,4378,70,779,394
48,670,4231,104,797,346
35,597,4001,146,804,292
66,473,3890,138,777,271
46,580,3878,82,744,295
-47,805,3789,74,729,285
-167,983,3506,112,710,219
-239,946,3160,126,658,122
-213,736,2936,113,562,44
-156,601,2902,36,443,11
-47,442,2950,-20,337,14
31,213,2985,-102,261,58
0,153,2996,-165,213,134
-111,252,2728,-128,193,170
-222,312,2280,-68,145,153
-233,321,2026,-22,31,107
-165,238,2014,-14,-111,56
-37,189,2265,-22,-250,26
48,85,2537,-10,-337,2
48,85,2537,-10,-337,2
38,-11,2574,9,-376,1
17,-90,2542,39,-416,10
-20,-5,2588,81,-476,29
-26,246,2659,121,-545,32
26,352,2762,157,-616,-9
99,280,2964,162,-686,-50
146,258,3178,160,-744,-57
153,423,3299,143,-788,-34
196,526,3339,100,-834,-31
297,215,3385,31,-887,-52
352,-78,3537,-18,-939,-25
431,-12,3679,-32,-971,27
483,147,3863,-2,-988,34
503,365,3975,37,-988,3
603,473,4083,65,-988,-47
765,429,4112,88,-977,-108
894,333,4045,90,-1007,-141
1046,148,4354,-1,-1057,-112
1135,30,4689,-130,-1055,-23
1142,70,4832,-149,-1006,50
1011,49,4629,-106,-943,72
907,143,4471,-58,-910,67
953,325,4448,41,-896,3
1080,388,4448,142,-882,-93
1173,402,4545,147,-874,-142
1226,400,4645,34,-868,-121
1300,127,4612,-122,-865,-73
1352,-318,4657,-205,-878,-8
1302,-376,4743,-232,-853,89
1164,12,3986,-173,-846,125
1140,139,4215,-161,-930,65
1196,-178,4381,-110,-928,-10
1244,-172,4432,-19,-896,-18
1337,93,4387,19,-857,-5
1426,-177,4381,4,-846,-15
1496,-335,4598,20,-853,21
1450,-122,4419,14,-813,80
1413,88,4100,-1,-818,83
1478,-133,4260,-28,-854,40
1602,-272,4495,31,-842,35
1740,87,4528,107,-792,57
1806,249,4434,146,-772,28
1898,118,4706,121,-777,0
1988,203,4965,66,-745,26
2076,474,5182,44,-682,35
2053,387,5091,34,-594,9
2071,234,4983,17,-530,7
2134,282,4935,-18,-492,36
2144,295,4839,-86,-473,52
2132,192,5043,-121,-467,49
2168,179,5159,-123,-410,57
2243,240,5135,-103,-332,63
2260,195,5095,-80,-267,51
2248,104,5016,-93,-206,62
2208,77,4964,-104,-150,79
2111,122,4898,-87,-89,82
2065,347,4809,-48,-33,61
2073,400,4782,-35,11,8
2057,268,4749,-61,53,-26
2001,182,4654,-100,91,-15
1939,173,4559,-129,120,11
1868,141,4374,-130,146,21
1783,4,4132,-138,161,25
1727,-35,4053,-130,146,37
1737,-69,4002,-96,134,39
1759,-50,4014,-77,132,42
1711,106,4080,-63,145,40
1659,102,3929,-49,172,11
1659,102,3929,-49,172,11
1594,-77,3742,-64,171,-9
1539,-84,3700,-75,139,0
1518,12,3680,-67,106,7
1548,-42,3624,-60,73,-5
1616,-50,3722,-66,32,-4
1728,19,3877,-63,10,-4


-589,-411,3925,-172,-440,208
-526,-157,3994,-100,-408,185
-467,-191,3787,-31,-381,138
-460,-392,3698,-48,-403,145
-434,-532,3662,-101,-433,206
-460,-470,3763,-130,-467,279
-534,-135,3719,-56,-477,310
-549,-97,3428,-3,-484,275
-562,-305,3477,-12,-547,241
-475,-305,3720,29,-600,243
-324,-379,3705,86,-605,252
-170,-265,3854,75,-625,303
-68,16,4046,46,-631,349
-68,16,4046,46,-631,349
-73,167,4093,20,-612,351
-129,-29,3984,11,-596,316
-167,-517,3722,-24,-604,321
-157,-1020,3600,-72,-650,391
-106,-1302,3681,-82,-701,503
-111,-1001,3870,-27,-728,615
-134,-205,4062,116,-729,624
-60,381,4209,294,-718,498
72,238,4216,371,-711,351
211,-250,4337,265,-730,352
382,-511,4293,60,-749,507
342,-814,4118,-115,-789,670
230,-997,4676,-53,-798,797
156,-634,4185,141,-650,820
-45,-269,3485,364,-629,691
31,-106,3560,469,-738,553
282,-655,3881,438,-835,489
497,-1159,4153,374,-889,599
564,-813,4371,369,-903,786
596,103,4503,431,-879,864
671,474,4635,534,-830,752
699,699,4876,665,-770,601
732,708,4893,752,-694,498
801,760,4833,769,-662,499
790,997,4931,636,-667,570
803,1211,5157,485,-668,614
835,1043,5191,403,-632,608
776,1184,5511,406,-587,610
770,1919,5512,468,-485,569
798,2053,5229,472,-403,419
748,1563,5289,380,-385,310
645,1411,5348,306,-350,317
491,1607,5177,284,-303,333
384,2013,5059,297,-280,292
376,2289,5091,309,-266,171
444,2241,5156,314,-246,18
621,2036,5170,312,-224,-87
700,1909,5296,228,-199,-106
714,2192,5368,152,-155,-78
686,2365,5141,75,-112,-83
678,2483,5005,-31,-117,-102
726,2522,5013,-142,-134,-146
759,2374,4965,-224,-130,-211
760,2244,4845,-299,-114,-262
759,2302,4772,-345,-95,-318
748,2333,4636,-386,-63,-397
724,2349,4515,-434,-44,-487
723,2289,4465,-481,-30,-590
720,2151,4415,-512,-7,-694
669,1999,4249,-546,17,-779
579,1747,3977,-592,26,-841
506,1410,3672,-646,-6,-858
568,1263,3556,-711,-85,-831
698,1158,3687,-793,-168,-800
755,1143,3833,-869,-213,-769
720,1136,3762,-913,-221,-767
710,1008,3644,-931,-232,-813
743,736,3655,-924,-252,-885
821,451,3781,-888,-252,-951
946,196,3801,-853,-223,-988
934,-166,3758,-846,-182,-991
877,-377,3544,-814,-170,-948
944,-597,3463,-801,-213,-893
1064,-892,3744,-802,-282,-834
1122,-1043,4093,-749,-303,-768
1207,-1162,4234,-650,-275,-718
1320,-1475,4320,-570,-243,-683
1355,-1822,4349,-500,-219,-624
1355,-1822,4349,-500,-219,-624
1317,-1870,4426,-438,-207,-540
1335,-1678,4557,-338,-188,-502
1369,-1702,4562,-234,-160,-522
1440,-2077,4600,-174,-155,-528
1553,-2477,4707,-168,-158,-446
1614,-2735,4859,-189,-152,-281
1702,-2597,5006,-156,-127,-92
1740,-2395,5156,-110,-85,42
1799,-2195,5466,-13,-24,131
1807,-1819,5795,112,89,161
1761,-1576,5951,238,259,129
1701,-1526,6014,377,427,84
1610,-1535,5977,460,582,95
1442,-1459,5947,508,708,165
1333,-1271,5883,551,821,261
1193,-1071,5715,550,923,356
978,-779,5454,542,998,438
729,-467,5152,539,1022,486
528,-333,4923,456,997,511
417,-247,4880,374,936,536
337,-71,4909,355,882,554
292,220,4920,361,854,549
367,354,4879,388,859,487
385,266,4802,375,878,431
370,227,4744,298,898,435
340,278,4622,209,922,467
197,460,4518,162,945,484
16,716,4248,195,975,437
-127,742,3896,239,980,333
-198,620,3692,263,928,247
-157,618,3724,272,857,210
-124,781,3781,254,812,199
-191,975,3733,221,792,172
-302,1024,3435,200,772,131
-316,930,3076,119,722,84
-243,581,3000,64,623,42
-224,569,3210,29,530,77
-288,885,3073,14,502,123
-373,954,2579,3,460,101
-443,633,2125,-31,342,54
-420,350,1975,-99,174,47
-318,218,2061,-142,10,65
-262,151,2099,-144,-103,72
-219,173,2041,-135,-190,72
-111,261,2124,-125,-283,61
-26,359,2309,-116,-359,41
-39,273,2368,-97,-403,2
-102,85,2332,-102,-447,-4
-168,-4,2265,-81,-517,11
-190,-1,2292,-75,-614,32
-219,177,2469,-80,-723,51
-130,314,2691,-54,-815,24
-13,288,2992,-30,-879,-19
11,320,3085,-13,-914,-34
72,296,3018,-21,-955,-44
198,86,3111,-69,-1026,-46
292,-75,3427,-109,-1087,-17
337,46,3605,-55,-1096,16
388,297,3567,4,-1088,19
523,414,3626,28,-1104,-14
698,395,3912,39,-1132,-66
759,385,4113,20,-1127,-97
726,332,4202,-16,-1119,-96
809,105,4113,-87,-1114,-83
803,-120,3999,-110,-1176,-61
849,76,4311,-116,-1250,-18
1065,40,4501,-86,-1248,-31
1210,-210,4550,-54,-1215,-28
1252,-70,4532,-32,-1176,29
1252,-70,4532,-32,-1176,29
1258,199,4376,-33,-1145,60
1261,206,4396,-50,-1148,23
1240,70,4637,-35,-1150,-36
1329,-38,4753,4,-1123,-74
1450,-165,5112,39,-1087,-87
1551,-148,4636,65,-1011,-69
1620,179,4611,56,-1096,-54
1739,214,5390,-27,-1131,-57
1823,219,5529,-7,-1031,-51
1873,196,5494,33,-916,-38
1853,175,5146,-12,-812,-6
1747,96,4817,-111,-791,21
1727,-6,4937,-192,-814,37
1761,-22,5218,-178,-797,36
1807,245,5335,-49,-749,8
1905,557,5497,36,-680,-47
1953,544,5398,32,-586,-114
2007,271,5177,-55,-519,-144
2000,-205,5077,-178,-492,-111
2013,-200,5164,-245,-471,-16
2000,-66,5172,-246,-417,32
1937,52,5050,-240,-351,49
1878,69,4818,-232,-299,42
1806,0,4666,-225,-285,21
1783,48,4682,-200,-284,12
1839,57,4694,-156,-261,-5
1891,-85,4652,-111,-217,-32
1907,-176,4658,-72,-174,-35
1963,-181,4637,-35,-122,-13
1987,-288,4536,-41,-73,23
1923,-213,4493,-46,-39,77
1879,-40,4417,-26,-9,109
1866,32,4327,-4,12,99
1847,33,4316,10,31,74
1814,134,4343,42,57,41
1814,149,4350,77,88,-3
1796,2,4288,85,123,-27
1756,-56,4180,67,141,-5
1760,86,4182,49,138,25
1724,173,4192,33,143,28
1659,100,4081,16,153,22
1652,43,4000,6,138,27
1703,-28,3978,-8,117,34
1734,-66,4031,-43,101,55
1678,70,4093,-61,101,77
1612,263,4038,-42,115,62
1600,175,3921,-20,127,1


-26,-673,3495,24,-908,347
-30,-719,3805,72,-943,360
-24,-759,3825,143,-916,370
18,-900,3706,227,-896,369
91,-865,3673,294,-910,407
132,-725,3733,269,-939,462
193,-593,3919,259,-985,505
275,-370,4211,309,-1014,529
366,-165,4393,361,-1009,523
432,-101,4491,374,-984,510
485,-245,4390,358,-962,515
596,-362,4468,293,-963,575
695,-377,4729,272,-948,641
658,54,4648,259,-893,689
569,100,4925,328,-869,615
625,-291,5199,561,-741,546
577,-161,4183,653,-638,567
526,94,4026,564,-738,592
643,-118,4416,462,-843,596
848,-137,4778,404,-875,661
920,375,5088,418,-841,706
913,894,5155,477,-756,660
877,1007,4913,533,-662,542
851,871,4698,551,-616,447
899,610,4659,547,-598,408
967,535,4590,474,-577,447
943,782,4686,418,-585,495
876,1073,4905,432,-582,491
873,1288,5030,457,-546,450
899,1427,5012,464,-508,397
919,1503,5128,422,-485,349
918,1640,5370,391,-446,296
861,1895,5459,411,-367,217
869,1952,5346,421,-282,103
881,1679,5260,353,-233,28
819,1651,5297,276,-203,33
719,2024,5331,222,-174,49
692,2411,5264,167,-144,8
687,2410,5142,120,-126,-95
692,2209,5020,63,-120,-188
753,2180,4952,-5,-127,-228
879,2275,4957,-94,-132,-253
986,2192,4913,-200,-119,-289
1044,2093,4835,-306,-101,-301
1058,2198,4735,-410,-81,-306
1061,2100,4517,-509,-56,-355
976,1781,4310,-586,-48,-414
905,1705,4207,-628,-61,-446
895,1701,4144,-646,-70,-503
860,1732,4098,-644,-69,-594
856,1723,4027,-643,-58,-709
864,1386,3994,-660,-46,-835
803,1065,3994,-660,-32,-900
724,1021,3844,-660,-16,-905
724,1021,3844,-660,-16,-905
698,921,3681,-695,-28,-906
676,674,3629,-736,-70,-900
658,514,3541,-774,-120,-856
767,392,3475,-812,-197,-802
890,243,3596,-852,-281,-752
986,358,3952,-879,-317,-732
1066,338,4067,-827,-280,-792
1186,-55,3966,-761,-223,-880
1255,-514,4010,-727,-195,-912
1253,-782,4018,-694,-172,-870
1236,-989,3966,-650,-152,-807
1240,-1119,3912,-601,-150,-743
1306,-1340,3855,-562,-166,-684
1400,-1760,3778,-544,-199,-613
1452,-2044,3888,-552,-256,-498
1532,-2058,4126,-511,-292,-397
1607,-2086,4344,-416,-287,-344
1652,-2044,4559,-283,-252,-314
1720,-2169,4569,-182,-203,-290
1817,-2540,4639,-202,-180,-202
1909,-2459,5016,-225,-175,-48
1963,-2297,5413,-187,-116,50
2014,-2133,5741,-63,0,90
1994,-1756,5934,64,169,100
1871,-1541,5815,178,348,70
1747,-1563,5696,240,472,57
1678,-1571,5689,246,550,104
1637,-1581,5695,220,613,192
1586,-1557,5667,179,670,300
1508,-1410,5699,193,730,396
1406,-1206,5623,266,811,448
1255,-925,5463,364,894,458
1113,-482,5325,431,957,446
1042,-96,5233,448,1000,407
993,-20,5195,432,1025,348
913,-44,5130,388,1052,326
805,14,5060,354,1080,329
650,151,4915,378,1127,310
451,220,4645,418,1169,269
271,330,4267,441,1177,248
148,485,3890,403,1121,246
143,448,3684,301,1009,242
162,263,3730,162,881,266
183,283,3891,71,792,321
168,451,3953,59,764,356
104,601,3753,61,771,354
37,646,3530,46,762,317
0,717,3444,53,737,254
-93,713,3308,56,720,165
-215,663,3127,47,694,86
-402,380,2812,57,648,31
-512,310,2474,29,564,45
-581,243,2225,-18,428,67
-522,223,2169,-24,267,83
-372,233,2286,-11,126,85
-216,258,2435,-15,28,92
-131,322,2516,-23,-31,105
-128,432,2456,-21,-69,97
-201,391,2194,-27,-112,50
-259,123,1979,-42,-200,4
-302,-90,2001,-44,-329,-1
-310,-73,2080,-38,-456,23
-229,28,2227,-33,-575,38
-198,-54,2450,-10,-666,20
-218,-18,2597,45,-730,17
-153,150,2641,122,-794,8
58,262,2844,166,-878,-18
300,377,3215,176,-960,-41
528,379,3508,137,-994,-59
528,379,3508,137,-994,-59
594,214,3692,81,-994,-61
549,92,3659,45,-982,-35
506,76,3498,29,-988,-3
484,65,3515,16,-1031,4
514,17,3668,50,-1080,-16
705,-95,3885,110,-1119,-38
939,48,4065,137,-1122,-40
1043,370,4082,188,-1139,-80
1201,240,4214,154,-1158,-140
1337,-112,4513,65,-1155,-133
1389,-87,4742,29,-1116,-59
1300,66,4730,30,-1050,-1
1213,238,4551,35,-987,19
1230,299,4410,54,-965,-9
1333,211,4524,66,-974,-52
1382,44,4619,44,-957,-47
1367,-139,4586,5,-925,1
1349,-380,4245,-67,-874,73
1249,-412,3371,-126,-950,129
1240,-216,4334,-172,-1136,127
1330,-256,4851,-37,-1096,53
1413,-135,4669,118,-987,6
1520,258,4719,204,-935,-25
1565,472,4691,238,-907,-88
1673,140,4667,227,-897,-143
1845,-242,4837,136,-889,-100
1861,-255,4941,51,-863,20
1889,49,5006,36,-834,133
1848,325,5036,24,-791,174
1830,633,5025,26,-744,137
1865,570,5059,12,-697,38
1880,465,4980,8,-659,-48
1952,327,5039,10,-649,-104
2087,129,5291,-23,-614,-108
2121,102,5384,-87,-530,-66
2126,209,5403,-107,-444,-17
2092,191,5267,-47,-371,0
2114,76,5002,-72,-319,28
2125,-69,4988,-127,-304,69
2136,-2,5062,-120,-272,104
2170,56,4991,-89,-207,103
2128,121,4958,-58,-143,83
2078,285,4855,-27,-80,50
2063,342,4718,-16,-28,-8
2033,133,4598,-41,4,-58
1995,22,4511,-119,20,-39
1955,53,4531,-181,27,5
1874,1,4530,-185,46,30
1843,-46,4300,-173,76,59
1838,-144,4207,-170,77,85
1828,-127,4246,-139,80,111
1783,9,4168,-89,103,118
1732,120,4084,-38,120,92
1724,66,4028,-3,134,43
1713,61,4041,24,143,7
1742,169,4045,56,156,-19
1737,86,3966,45,167,-45
1707,-74,3909,-4,155,-27
1697,-111,3820,-54,135,29
1696,-33,3827,-95,98,82
1697,18,3853,-115,72,106
1733,5,3901,-116,61,105
1734,-5,3905,-89,63,92
1737,98,3937,-48,69,73
1745,158,3950,-2,87,29
1703,71,3861,3,105,-3
1636,14,3810,-16,96,-1
1553,55,3774,-19,80,10
1544,95,3710,-15,58,10
1544,95,3710,-15,58,10
1591,47,3754,-20,21,0
1654,10,3918,-18,0,-6
1694,3,3965,-7,6,-1
1712,18,3900,-8,13,16
1727,-5,3849,-28,1,33


-10,-426,3672,147,-760,537
56,-223,3888,221,-818,504
150,-27,4156,268,-838,461
271,69,4308,294,-823,411
386,19,4471,277,-811,390
472,-40,4632,249,-772,410
418,-92,4518,239,-711,435
247,-317,4619,325,-681,462
226,-316,4462,418,-576,550
155,14,3518,391,-547,624
109,299,3520,345,-708,620
232,165,3851,281,-837,589
506,32,4115,200,-887,597
669,16,4467,219,-905,582
766,159,4717,301,-865,561
774,350,4747,366,-779,541
797,672,4613,391,-703,516
815,573,4544,380,-675,472
807,556,4650,348,-677,485
776,606,4651,269,-661,527
661,592,4596,231,-651,546
596,501,4506,281,-654,534
658,295,4483,332,-657,535
739,405,4435,336,-672,576
840,773,4671,313,-710,603
925,1053,5035,280,-701,577
925,1053,5035,280,-701,577
989,1145,5274,332,-636,494
993,1169,5264,407,-531,406
953,1204,5144,457,-440,333
990,1169,5032,485,-385,281
1034,1051,5028,454,-359,280
1017,1245,5132,402,-338,327
965,1636,5111,389,-302,331
920,1721,4950,399,-264,257
960,1583,4961,411,-249,163
998,1769,5174,431,-227,108
986,2280,5260,417,-167,47
1000,2509,5226,337,-97,-61
966,2482,5255,261,-41,-188
846,2573,5258,226,13,-289
793,2646,5072,185,71,-380
766,2467,4818,79,91,-438
720,2281,4629,-82,60,-425
749,2087,4399,-275,0,-360
842,1923,4396,-461,-87,-279
906,1952,4543,-581,-148,-218
929,2064,4491,-645,-155,-216
961,2086,4327,-679,-144,-281
1018,2079,4367,-669,-135,-407
1052,1988,4356,-642,-86,-565
1061,1780,4260,-629,-20,-711
960,1594,4194,-630,30,-827
790,1464,4044,-629,73,-906
659,1063,3658,-656,83,-950
626,642,3425,-717,18,-918
676,585,3549,-774,-78,-833
782,513,3667,-799,-139,-779
842,330,3731,-819,-172,-745
834,306,3750,-795,-189,-730
891,353,3797,-748,-198,-759
955,248,3899,-689,-189,-841
1065,99,3954,-613,-173,-934
1146,-328,4044,-572,-160,-998
1155,-673,4137,-560,-151,-963
1135,-568,4119,-546,-153,-869
1181,-695,4014,-572,-172,-802
1275,-1102,4084,-623,-224,-722
1374,-1267,4384,-632,-269,-609
1485,-1301,4589,-603,-260,-503
1595,-1331,4757,-549,-216,-442
1670,-1319,4965,-464,-146,-420
1693,-1475,5042,-353,-41,-430
1677,-1750,4962,-248,57,-414
1621,-1912,4853,-181,122,-336
1590,-2032,4879,-150,153,-223
1542,-2027,4995,-101,174,-98
1486,-1929,5050,-86,203,32
1492,-1863,5258,-71,229,140
1517,-1817,5508,-8,281,214
1526,-1644,5606,66,378,271
1498,-1403,5707,174,492,286
1485,-1116,5757,322,626,254
1451,-947,5642,410,775,203
1341,-943,5485,433,892,183
1182,-977,5321,425,977,223
963,-913,5125,429,1035,304
751,-543,4899,468,1063,384
586,-67,4712,480,1066,415
493,173,4604,482,1048,378
384,190,4491,473,1022,329
263,258,4295,421,989,328
227,472,4109,341,936,345
236,469,4043,267,875,309
180,372,4096,220,826,272
180,372,4096,220,826,272
112,453,4100,208,809,266
41,637,3975,210,812,252
-13,764,3792,193,804,223
-66,765,3632,146,771,196
-123,805,3514,86,719,195
-129,791,3317,30,665,188
-215,629,3228,-2,592,176
-299,783,3122,-11,526,195
-319,847,2813,-44,472,153
-363,503,2587,-71,373,97
-402,396,2522,-86,255,108
-385,390,2293,-111,150,134
-316,209,2080,-164,18,150
-276,202,2186,-191,-131,175
-212,431,2362,-144,-239,165
-134,504,2404,-75,-306,102
-30,432,2458,-9,-367,29
49,363,2601,31,-429,-16
88,393,2744,44,-480,-20
101,395,2745,35,-519,-13
52,401,2725,13,-571,-6
67,411,2773,9,-645,-7
129,380,2795,-18,-718,-3
177,311,2842,-80,-795,0
190,289,3028,-138,-874,0
218,183,3092,-151,-922,-30
303,32,3226,-159,-968,-57
414,107,3515,-117,-1009,-69
489,198,3636,-66,-1009,-82
540,84,3584,-30,-1003,-93
587,-36,3614,-14,-1031,-72
645,122,3795,-2,-1071,-38
784,113,3950,0,-1080,-37
857,-46,3828,-28,-1085,-35
891,180,4068,-1,-1144,-33
1053,455,4435,62,-1158,-89
1242,505,4643,99,-1119,-174
1394,409,4785,118,-1073,-235
1531,203,4846,94,-1021,-228
1556,60,4746,12,-979,-144
1522,95,4695,-98,-964,-30
1445,-87,4723,-197,-946,46
1338,-227,4668,-189,-917,84
1311,-155,4508,-128,-891,92
1375,-70,4629,-82,-876,56
1368,1,4026,-10,-887,-11
1412,133,4522,-2,-997,-75
1600,39,5050,9,-974,-120
1733,39,5108,42,-864,-112
1666,180,4905,41,-745,-78
1546,353,4552,10,-680,-53
1444,106,4238,-45,-691,-49
1484,-150,4336,-97,-750,-12
1513,-57,4648,-108,-773,40
1534,44,4602,-54,-735,55
1613,-7,4508,-4,-717,46
1746,153,4813,60,-726,29
1837,310,4811,142,-691,-16
2014,347,4881,173,-676,-61
2185,75,5141,99,-649,-71
2258,98,5291,-29,-586,-3
2226,168,5083,-171,-520,60
2237,125,5172,-254,-494,92
2310,80,5396,-245,-441,91
2341,226,5472,-199,-344,83
2361,327,5363,-153,-232,52
2332,222,5279,-116,-146,12
2236,131,5206,-72,-58,-11
2124,-6,4941,-31,19,-24
2008,-52,4745,-2,59,-11
2008,-52,4745,-2,59,-11
1933,46,4603,16,81,5
1900,46,4478,23,96,1
1926,-9,4391,8,104,0
1913,-100,4370,-20,115,12
1882,-106,4320,-54,135,46
1811,32,4230,-77,152,83
1756,194,4147,-80,163,84
1710,198,4109,-63,171,46
1658,117,4070,-26,183,8
1622,0,3907,1,193,-7
1636,-17,3834,0,170,9
1635,-10,3886,-21,141,33
1609,-40,3867,-42,132,56
1608,-44,3856,-37,120,74
1596,-34,3814,-24,113,81
1619,12,3777,-16,96,86
1683,92,3863,-11,77,83
1743,192,3957,-18,77,71
1734,201,4011,-17,95,38
1656,130,3956,-5,117,11
1598,63,3812,2,127,0
1566,4,3752,-7,101,4
1540,39,3808,-18,64,26
1512,101,3786,-13,37,37
1483,77,3708,-7,8,32
1530,35,3681,-11,-29,27
1605,-13,3749,-42,-72,35
1708,-8,3908,-84,-99,56
1758,-32,4065,-119,-95,72
1751,91,4152,-106,-70,85
1746,216,4148,-60,-30,58
1715,162,4071,-23,6,5
1662,65,3973,-2,22,-25


-756,-568,3330,-66,-539,217
-691,-803,3356,21,-593,142
-595,-1082,3466,98,-636,114
-483,-1111,3746,134,-671,168
-395,-726,3876,208,-676,244
-259,-411,3871,241,-669,268
-80,-378,4072,228,-680,252
-9,-483,4260,210,-657,255
-14,-708,4150,204,-599,295
-48,-869,3902,179,-561,375
-186,-927,3729,128,-564,478
-259,-779,3563,148,-598,558
-315,-728,3334,212,-658,571
-274,-634,3409,285,-752,555
-120,-269,3858,393,-837,525
97,-38,4130,481,-854,475
330,-25,4326,438,-843,461
521,78,4706,354,-813,490
567,113,4894,293,-721,517
425,-34,4681,238,-604,542
235,-191,4435,239,-544,582
111,-188,4011,236,-534,639
-19,-168,3800,214,-618,680
-1,-202,4190,304,-680,722
79,8,3500,309,-657,730
71,106,3454,333,-786,651
196,229,4117,348,-894,575
452,449,4479,348,-885,532
649,401,4576,360,-840,493
738,134,4647,361,-807,497
717,178,4681,362,-768,575
670,522,4592,335,-721,658
604,861,4624,304,-693,669
545,1038,4625,337,-662,598
514,949,4593,393,-632,493
570,825,4609,459,-616,430
677,967,4713,441,-605,434
712,1274,4951,397,-586,431
723,1702,5189,411,-547,387
713,1832,5216,369,-471,299
636,1701,4982,305,-430,208
593,1607,5012,257,-447,150
673,1445,5143,216,-450,134
787,1494,5298,175,-434,163
844,1924,5515,135,-399,197
899,2354,5633,127,-329,152
893,2507,5575,118,-237,36
865,2533,5489,91,-155,-91
842,2484,5401,68,-88,-218
781,2325,5226,31,-32,-322
709,2274,5065,-26,0,-383
678,2383,4928,-108,1,-412
680,2187,4703,-234,-12,-436
699,1864,4571,-389,-57,-416
736,1800,4563,-524,-109,-353
796,1858,4557,-618,-135,-322
798,1859,4502,-664,-130,-357
819,1889,4413,-679,-109,-438
850,1805,4406,-671,-79,-565
852,1639,4337,-639,-30,-709
796,1439,4188,-593,7,-844
758,1232,4193,-567,41,-948
716,998,3865,-551,60,-999
722,949,3765,-608,12,-985
714,914,3877,-689,-40,-957
689,883,3856,-739,-63,-936
698,728,3593,-782,-85,-933
743,547,3608,-833,-142,-931
743,547,3608,-833,-142,-931
784,285,3724,-858,-188,-933
814,72,3725,-853,-210,-923
828,44,3824,-816,-222,-929
885,22,3866,-750,-204,-983
967,-230,3868,-672,-184,-1063
1082,-644,3913,-644,-185,-1074
1163,-952,4067,-678,-194,-986
1141,-1156,4079,-703,-193,-866
1105,-1386,4023,-714,-194,-746
1124,-1564,4065,-676,-214,-650
1205,-1684,4190,-608,-233,-579
1324,-1782,4397,-543,-233,-524
1459,-2095,4592,-488,-213,-489
1571,-2499,4845,-418,-176,-427
1642,-2699,5007,-314,-113,-326
1691,-2891,5164,-191,-44,-212
1732,-3042,5355,-58,41,-85
1722,-3269,5331,80,151,44
1738,-3323,5375,226,234,201
1723,-2885,5733,397,310,367
1666,-1808,6084,590,425,483
1622,-757,6098,687,582,477
1633,-656,5908,621,721,372
1547,-1230,5824,506,811,303
1351,-1517,5789,458,886,356
1134,-1247,5599,493,965,450
878,-766,5301,552,1014,500
713,-412,4964,555,1015,505
655,-340,4841,501,971,474
593,-328,4962,490,929,435
510,-157,5024,521,936,408
424,89,4983,569,981,367
330,328,4837,580,1039,309
314,375,4697,532,1070,262
289,238,4638,451,1072,254
221,139,4537,355,1066,308
92,281,4432,257,1059,402
-43,556,4232,232,1047,449
-199,695,3965,231,1030,427
-294,832,3792,265,988,373
-367,1036,3696,308,937,297
-369,1334,3570,336,886,205
-402,1243,3392,306,834,80
-422,1167,3347,233,760,-5
-433,1094,3416,121,712,-67
-479,777,3164,71,692,-106
-518,460,2793,26,634,-79
-562,234,2540,-85,526,17
-649,208,2485,-185,396,147
-688,562,2447,-178,289,217
-610,787,2407,-133,199,167
-634,603,2322,-65,127,40
-692,494,2196,0,57,-45
-634,630,2151,58,-36,-104
-525,642,2122,47,-154,-161
-344,175,2176,-42,-284,-172
-150,-346,2409,-164,-414,-68
-78,-217,2725,-247,-506,117
-118,292,2880,-239,-545,227
-211,512,2892,-154,-561,187
-256,438,2824,-50,-584,79
-276,324,2930,7,-631,-11
-269,373,3137,69,-684,-73
-152,446,3310,91,-725,-114
-31,364,3498,53,-765,-135
29,282,3592,-1,-802,-114
80,231,3813,-61,-850,-83
204,16,4151,-56,-838,-52
204,16,4151,-56,-838,-52
251,-52,3790,-16,-811,4
288,116,3779,-24,-871,61
344,201,4018,-60,-919,82
339,432,4149,-81,-928,65
362,641,4209,-56,-922,-21
438,384,4215,14,-925,-153
541,-36,4271,0,-936,-194
651,-161,4435,-71,-946,-132
755,-1,4608,-116,-937,-40
757,146,4699,-103,-910,3
743,221,4615,-104,-866,24
788,110,4594,-81,-843,17
809,63,4641,-48,-817,10
824,173,4538,5,-805,0
906,243,4608,19,-809,-20
951,222,4775,32,-794,-50
953,433,4784,69,-745,-66
993,666,4600,101,-698,-109
1116,351,4519,68,-682,-178
1150,-122,4673,-9,-683,-163
1118,-95,4752,-56,-662,-67
1123,61,4661,-64,-627,0
1135,125,4618,-51,-607,17
1151,160,4550,-65,-587,31
1148,30,4455,-103,-573,44
1028,-106,4368,-137,-565,66
898,-22,4256,-133,-558,79
826,-2,4082,-98,-569,39
854,-175,4049,-62,-600,-18
952,-347,4349,-16,-623,-53
970,-313,4080,32,-604,-42
1035,38,4062,39,-682,-21
1122,-77,4604,-29,-743,-16
1193,-15,4852,-27,-720,18
1274,165,4888,-7,-664,28
1354,224,4958,1,-622,2
1416,236,5135,43,-584,-28
1492,327,5206,95,-533,-47
1603,407,5259,70,-483,-48
1650,412,5314,10,-440,-38
1655,286,5207,-59,-401,-23
1653,21,5223,-70,-374,6
1679,62,5231,-77,-317,56
1669,196,5125,-70,-248,73
1660,386,5027,-59,-194,57
1660,349,4942,-61,-147,10
1616,151,4908,-76,-114,-14
1572,53,4811,-88,-78,-2
1518,0,4670,-82,-55,20
1493,45,4596,-72,-47,44
1547,-25,4572,-58,-39,49
1587,-118,4648,-34,-22,58
1568,26,4592,-15,19,86
1509,195,4478,-9,59,82
1454,305,4395,10,85,43
1434,331,4276,23,100,-8
1432,226,4283,3,96,-48
1449,120,4332,-20,95,-59
1414,-16,4250,-34,110,-48
1388,-30,4132,-58,113,-3
1331,-16,4094,-80,97,33
1287,12,4051,-65,84,52


-515,-589,3107,-150,-643,59
-477,-530,3314,-206,-669,153
-455,-550,3057,-176,-685,200
-491,-729,3128,-153,-755,240
-549,-610,3309,-119,-802,316
-498,-317,3315,-45,-816,360
-435,-276,3254,75,-844,320
-461,-257,3286,136,-896,299
-446,25,3350,94,-945,315
-295,54,3473,27,-985,288
-130,-296,3667,43,-1017,241
-22,-594,3677,35,-1025,281
53,-524,3826,-46,-1028,405
114,-108,4008,-37,-1018,492
209,216,4073,-9,-997,504
313,194,4332,29,-986,458
298,57,4528,110,-940,405
253,-10,4561,185,-869,376
248,46,4558,334,-802,332
268,74,4288,468,-755,282
331,133,4351,498,-764,283
461,524,4611,469,-775,325
508,685,4605,409,-755,330
466,354,4411,293,-753,327
437,429,4222,130,-812,369
482,463,5147,210,-905,345
645,995,5328,313,-783,305
587,1042,4566,339,-694,159
564,828,4719,256,-756,89
556,828,5009,121,-765,94
614,670,4990,19,-729,112
628,702,5142,-32,-713,165
622,1185,5431,-45,-675,203
714,1363,5548,-17,-594,149
737,982,5547,16,-505,82
687,682,5438,53,-424,97
687,682,5438,53,-424,97
626,712,5153,82,-351,160
519,830,4767,72,-333,194
515,968,4878,60,-374,188
608,1224,5097,70,-372,148
700,1252,5061,94,-320,59
764,1037,5037,113,-277,-12
848,1006,5108,135,-241,-25
890,1058,5067,141,-193,-9
872,1132,4974,117,-158,15
879,1232,4950,92,-141,32
883,1394,4926,59,-122,40
915,1474,4940,32,-104,18
931,1408,4878,5,-72,-16
857,1553,4777,-30,-38,-47
793,1762,4710,-38,-10,-122
767,1797,4675,-29,16,-242
723,1749,4514,-42,42,-341
633,1733,4313,-77,50,-409
508,1724,4085,-115,30,-464
431,1715,3892,-162,-13,-506
448,1635,3813,-224,-72,-546
470,1498,3866,-310,-125,-567
509,1480,3930,-391,-158,-562
518,1627,3980,-439,-169,-569
477,1686,3897,-453,-170,-629
457,1539,3819,-455,-167,-728
488,1306,3634,-410,-183,-829
590,989,3641,-362,-244,-890
678,731,3749,-413,-297,-875
792,804,3895,-418,-332,-839
847,603,3950,-377,-348,-849
837,241,3869,-367,-356,-835
914,124,3951,-383,-383,-787
1070,60,4085,-376,-396,-761
1225,-81,4275,-360,-395,-758
1329,-391,4366,-341,-360,-762
1398,-699,4392,-358,-320,-721
1322,-996,4452,-353,-293,-667
1352,-808,4550,-303,-272,-610
1618,-864,4735,-371,-233,-596
1655,-1625,4927,-339,-190,-612
1637,-1833,4890,-271,-140,-505
1691,-1671,4915,-283,-122,-363
1828,-1652,5250,-284,-115,-282
1951,-1695,5724,-253,-61,-225
1922,-1419,5995,-187,62,-156
1847,-1139,5782,-124,220,-134
1757,-1110,5806,-92,315,-146
1697,-1082,6035,-61,416,-140
1641,-1042,5914,-15,543,-103
1479,-1117,5664,-32,643,-46
1307,-1177,5594,-55,701,21
1163,-936,5688,26,750,80
1007,-396,5529,142,824,94
857,-303,5186,187,880,49
773,-332,5155,185,885,29
710,-117,5232,183,899,41
622,112,5226,201,941,15
532,158,5251,228,994,-36
460,148,5222,252,1054,-54
368,234,5072,243,1111,-29
232,474,4966,199,1140,16
168,846,4944,176,1164,29
170,803,4900,175,1205,-28
186,543,4917,234,1268,-88
93,396,4729,351,1361,-115
-85,341,4158,446,1423,-109
-273,229,3476,506,1366,-89
-273,229,3476,506,1366,-89
-217,332,3755,320,1080,-4
-217,332,3755,320,1080,-4
-77,451,3979,305,1029,15
26,639,3888,349,1040,9
-44,660,3548,330,1049,-1
-182,625,3232,273,1007,0
-290,650,2935,221,921,0
-358,567,3005,163,810,-26
-443,326,3081,176,744,-60
-544,258,2807,204,715,-51
-648,483,2538,148,633,-3
-616,601,2467,81,513,10
-526,376,2584,55,390,5
-481,220,2504,36,311,34
-533,6,2158,49,225,67
-532,252,2134,15,87,133
-598,541,2080,-72,-29,154
-708,585,1946,-182,-152,134
-773,483,1950,-286,-294,114
-680,455,2216,-380,-436,110
-535,343,2658,-420,-530,109
-525,312,2766,-364,-557,124
-576,347,2674,-279,-582,136
-568,387,2678,-214,-639,128
-428,280,2748,-170,-709,109
-218,122,3228,-129,-777,115
-53,326,3698,-40,-742,157
-30,559,3280,15,-663,148
-115,440,3132,43,-706,101
-124,274,3259,31,-773,90
-126,33,3136,29,-812,101
-167,84,2854,-12,-887,142
-103,217,3101,-41,-1019,146
0,117,3566,41,-1110,87
137,144,3589,183,-1134,42
313,409,3620,213,-1194,31
600,177,4638,200,-1208,37
794,13,4140,232,-1052,106
667,368,3705,113,-1054,225
433,537,4166,-26,-1123,279
394,471,4275,-3,-1112,264
471,393,4215,20,-1098,235
513,536,4339,9,-1107,231
579,708,4543,34,-1107,196
645,558,4559,82,-1064,129
646,553,4260,86,-1053,110
713,384,4404,26,-1108,108
875,70,4747,4,-1123,131
1074,127,4858,46,-1080,192
1102,551,4877,73,-1028,245
1097,936,4825,75,-981,235
1113,703,4635,49,-953,176
1122,292,4479,8,-958,164
1179,146,4562,-22,-985,195
1273,281,4755,-31,-990,209
1342,497,4994,-32,-966,184
1399,713,5195,-21,-909,131
1450,722,5301,-10,-839,73
1455,802,4982,-23,-760,47
1434,786,4737,-55,-808,18
1532,490,5429,-165,-850,37
1608,324,5434,-185,-762,114
1581,486,5239,-140,-682,178
1532,553,5037,-113,-625,172
1534,381,4955,-86,-596,129
1599,259,4952,-48,-572,105
1658,309,4942,-22,-546,91
1725,382,5033,20,-510,55
1788,310,5013,92,-457,21
1835,270,4889,66,-409,33
1835,270,4889,66,-409,33
1850,267,4885,-30,-384,78
1848,313,4962,-100,-353,116
1779,186,4814,-110,-301,127
1708,209,4718,-89,-264,133
1691,396,4742,-51,-230,111
1679,375,4715,-6,-181,55
1643,385,4631,40,-137,15
1623,438,4570,85,-113,-8
1616,381,4465,109,-97,-17
1666,273,4394,77,-101,4
1741,270,4480,28,-115,49
1780,436,4559,0,-98,85
1723,505,4435,-10,-57,75
1682,503,4373,-16,-35,47
1695,501,4428,-11,-13,17
1637,402,4349,-18,20,5
1510,386,4156,-32,41,17
1406,350,4004,-53,33,26
1378,310,3989,-57,8,27
1386,287,3914,-56,-6,28
1425,189,3899,-65,-25,28
1444,205,3938,-60,-39,40
1492,379,3910,-36,-46,36


-110,-944,3164,256,-714,506
-121,-1001,3115,254,-791,538
-78,-771,3396,268,-871,556
2,-538,3691,357,-906,515
131,-422,3936,485,-904,474
226,-183,3987,562,-877,483
344,41,3976,549,-870,516
344,41,3976,549,-870,516
457,34,4200,437,-889,580
472,179,4317,332,-883,675
349,212,4065,246,-886,711
377,-49,4925,321,-906,728
473,235,4632,496,-757,753
336,536,4057,520,-714,717
311,716,4363,462,-779,646
374,695,4603,452,-792,567
450,664,4636,441,-775,531
626,738,4786,427,-772,553
699,939,4901,386,-748,609
664,1162,4765,325,-703,642
628,1166,4701,281,-687,623
670,1155,4834,282,-685,598
749,1069,4794,289,-662,586
779,762,4624,278,-643,594
774,752,4581,248,-645,641
753,952,4661,235,-639,651
738,1135,4721,270,-614,590
786,1075,4710,293,-591,510
883,888,4756,262,-590,482
967,949,4891,233,-579,511
1006,1389,4739,227,-551,506
1015,1516,4868,186,-555,425
1064,1577,5185,171,-517,334
1140,1686,5226,258,-446,256
1169,1743,5244,293,-382,205
1137,1729,5261,231,-327,199
1101,1987,5314,157,-282,224
1034,2221,5317,114,-231,200
963,2381,5175,81,-176,130
879,2549,5084,51,-150,33
901,2615,5131,27,-133,-83
961,2428,5074,-20,-102,-178
916,2513,4905,-124,-76,-196
858,2647,4689,-254,-76,-223
820,2458,4591,-369,-90,-291
816,2177,4453,-424,-89,-363
821,2163,4296,-458,-87,-412
811,2323,4207,-498,-95,-477
851,2290,4113,-545,-98,-574
867,2113,4089,-603,-101,-653
836,1883,3969,-653,-94,-702
725,1700,3661,-707,-97,-723
701,1668,3486,-751,-146,-747
801,1380,3465,-781,-209,-788
897,1143,3513,-818,-260,-794
968,1086,3520,-870,-292,-784
1071,949,3515,-886,-322,-786
1162,1025,3714,-884,-345,-800
1269,983,3873,-872,-320,-864
1295,659,3885,-836,-263,-948
1326,434,3920,-781,-207,-1009
1300,41,3878,-729,-153,-1041
1234,-343,3728,-696,-135,-1009
1141,-646,3690,-696,-165,-928
1056,-895,3592,-698,-218,-837
1062,-1054,3644,-667,-297,-765
1199,-1186,3833,-594,-367,-731
1442,-1397,4152,-516,-407,-710
1671,-1637,4413,-461,-395,-662
1820,-1611,4647,-400,-348,-600
1862,-1699,4676,-336,-267,-569
1865,-2085,4639,-322,-204,-525
1870,-2386,4733,-310,-170,-423
1857,-2559,4824,-267,-135,-294
1888,-2540,5003,-202,-112,-160
1954,-2532,5281,-98,-78,-58
2009,-2633,5421,29,-10,32
2009,-2633,5421,29,-10,32
2061,-2286,5671,127,78,134
2040,-1591,5961,241,204,157
2010,-1305,6062,361,359,75
1972,-1411,6002,437,501,16
1951,-1353,6031,436,604,61
1919,-1142,6154,400,694,161
1791,-932,6149,374,799,269
1604,-731,6012,384,910,348
1419,-640,5840,450,1012,379
1244,-394,5663,525,1103,388
1084,104,5457,590,1174,377
964,452,5303,614,1218,319
825,460,5154,610,1248,240
652,543,4905,608,1262,193
482,661,4537,584,1244,158
432,641,4379,519,1176,129
435,433,4410,445,1112,123
422,583,4443,384,1087,185
439,845,4274,327,1087,239
377,1009,4113,220,1078,268
286,979,3971,144,1066,264
114,956,3676,95,1052,255
-80,1034,3327,56,1015,216
-206,1047,3056,92,935,117
-257,904,2992,102,845,0
-320,598,2862,109,765,-72
-310,499,2664,110,681,-66
-268,485,2591,94,583,-33
-311,472,2500,64,496,11
-342,528,2272,43,412,53
-304,593,2137,11,300,80
-262,623,2126,-18,189,86
-243,618,1949,-36,89,78
-221,474,1820,-66,-31,52
-166,227,1965,-77,-158,33
-122,206,2040,-48,-245,38
-110,175,1943,-23,-316,39
-145,151,1914,-4,-413,39
-86,139,1950,18,-518,37
31,26,2151,15,-617,35
82,167,2468,10,-691,57
83,279,2685,34,-726,46
100,209,2784,57,-750,17
145,10,3058,98,-783,9
233,105,3178,163,-790,42
261,249,3130,216,-813,55
295,400,3270,240,-865,60
310,467,3139,240,-902,59
340,288,3208,208,-976,57
419,188,3272,200,-993,90
440,334,2715,201,-1057,113
609,407,3277,116,-1228,104
871,421,3941,101,-1281,80
1047,772,4098,136,-1237,56
1094,1010,4324,175,-1201,-13
1010,847,4278,186,-1137,-73
887,568,3791,135,-1131,-56
970,311,3891,21,-1226,36
1107,503,4353,-38,-1286,138
1187,1136,4631,-10,-1265,138
1337,1299,4764,45,-1212,10
1443,1026,4842,81,-1161,-92
1541,900,4674,19,-1119,-88
1623,420,4530,-112,-1124,-35
1612,93,4570,-236,-1155,79
1651,8,4650,-292,-1170,184
1768,-97,4609,-284,-1128,225
1764,129,4000,-209,-1194,217
1908,484,5178,-272,-1307,168
2050,408,5689,-208,-1170,64
2050,408,5689,-208,-1170,64
2112,240,5468,-21,-972,-10
2086,293,5227,61,-846,-18
2071,417,5192,58,-794,-2
2106,431,5271,27,-764,1
2132,239,5279,63,-745,20
2217,585,5315,61,-722,85
2243,606,5288,-26,-680,90
2290,559,5293,-82,-629,87
2301,367,5263,-124,-559,77
2273,4,5112,-112,-484,76
2221,171,4965,-64,-430,96
2194,451,5113,-12,-383,54
2272,346,5147,57,-305,-24
2307,182,5082,75,-224,-36
2251,318,4987,73,-165,9
2226,537,4888,76,-122,35
2217,509,4802,53,-82,32
2209,587,4845,40,-45,30
2163,698,4824,41,10,12
2099,579,4649,32,68,-17
2037,446,4579,17,99,-25
1948,469,4484,13,127,-16
1916,465,4272,17,149,-19
1936,386,4229,3,147,-26
1891,282,4211,-21,154,-10
1794,213,3997,-36,166,20
1741,274,3878,-47,144,53
1795,324,3943,-51,117,61
1850,354,4072,-55,120,54
1847,403,4079,-30,153,36
1798,301,3877,-12,188,21
1721,284,3705,-24,182,35
1653,340,3712,-39,151,39
1610,280,3690,-28,130,19
1629,261,3684,0,114,5
1695,262,3737,13,96,-2
1698,315,3780,13,93,0
1689,441,3746,24,93,-7
1704,354,3781,29,86,-27
1715,281,3780,12,82,-12
1683,341,3770,-18,66,26
1655,394,3787,-40,45,54
1670,341,3742,-45,30,63
1680,343,3721,-61,5,75
1729,468,3801,-68,-17,68
1798,394,3846,-80,-33,42
1871,417,4007,-107,-41,41
1900,358,4095,-109,-23,27
1891,219,4000,-96,4,16
1931,232,3942,-113,7,34
1969,220,4015,-175,-4,73


226,108,4028,487,-796,408
310,-303,3981,456,-799,448
330,-519,3999,346,-826,613
190,-198,3883,229,-853,810
73,125,3488,146,-903,902
77,307,3632,54,-1012,876
246,517,4100,64,-1094,771
466,410,4057,53,-1102,645
639,-480,4600,59,-1099,639
834,-234,4139,47,-1007,840
867,321,3682,-38,-1063,970
867,678,4388,-147,-1175,979
897,859,4919,-87,-1139,879
854,897,4870,61,-1023,745
819,868,4639,137,-946,654
841,620,4618,130,-935,621
955,534,4731,117,-946,656
1069,854,4994,124,-932,691
1081,998,5137,209,-867,637
1108,1252,5121,324,-780,550
1181,1371,5318,394,-702,443
1231,1412,5231,462,-617,371
1302,1455,5158,429,-584,338
1378,1291,5347,303,-585,364
1409,1353,5654,177,-563,440
1331,1385,5624,136,-494,484
1225,1420,5490,150,-437,493
1159,1500,5377,190,-393,465
1179,1731,5435,243,-362,394
1306,1971,5673,311,-313,273
1495,1701,5683,352,-213,140
1544,1366,5507,331,-108,106
1375,1690,5354,286,-26,137
1234,2014,5187,272,29,83
1198,2052,5196,266,65,-25
1146,1947,5169,260,112,-119
1013,1965,4855,241,150,-162
900,1979,4602,173,136,-189
850,1971,4468,63,98,-211
837,1901,4426,-43,59,-228
795,1926,4304,-116,34,-237
730,2044,4080,-196,4,-255
707,2025,3975,-278,-45,-299
685,1903,3923,-332,-89,-357
648,1888,3823,-384,-120,-407
667,2057,3778,-416,-157,-474
784,2042,3904,-445,-189,-577
859,1793,3980,-469,-187,-666
877,1481,3757,-497,-171,-698
877,1481,3757,-497,-171,-698
888,1553,3624,-568,-198,-664
946,1776,3715,-627,-239,-676
1029,1655,3819,-630,-245,-771
1093,1362,3811,-589,-224,-867
1082,1274,3741,-598,-200,-912
1093,1261,3713,-579,-192,-968
1086,1128,3766,-546,-183,-1052
1097,897,3826,-536,-165,-1119
1064,656,3843,-514,-141,-1144
1010,694,3803,-479,-128,-1133
1048,422,3599,-500,-137,-1134
1122,-135,3488,-566,-203,-1086
1246,-311,3759,-636,-293,-968
1380,-381,4038,-646,-327,-886
1499,-733,4171,-585,-313,-857
1592,-1228,4045,-511,-286,-806
1675,-1335,4160,-488,-292,-696
1739,-1276,4377,-430,-289,-627
1820,-1462,4492,-314,-254,-616
1940,-1822,4481,-209,-215,-583
2069,-1896,4640,-153,-198,-492
2185,-1898,4881,-114,-159,-402
2247,-1944,5060,-68,-94,-321
2273,-1902,5071,-15,-18,-237
2318,-1907,5081,17,39,-156
2370,-1970,5372,47,85,-77
2385,-1754,5663,112,176,23
2376,-1457,5690,138,298,116
2255,-1355,5767,126,403,193
2115,-1220,5849,116,514,268
1954,-1152,5791,124,637,319
1776,-722,5888,169,743,359
1644,-256,5948,231,870,331
1551,-284,5914,284,1003,259
1441,-454,5819,307,1124,260
1267,-168,5738,326,1222,345
1073,380,5622,355,1304,401
922,500,5397,388,1373,374
815,286,5122,381,1404,364
701,357,4954,358,1401,419
559,837,4845,337,1391,461
452,1404,4750,310,1384,418
385,1506,4603,284,1375,282
287,1242,4328,224,1353,163
116,1016,4098,108,1295,132
12,1015,4028,8,1216,143
-34,1095,3992,-42,1158,137
-10,818,3919,-54,1129,99
15,636,3871,-86,1120,122
-116,749,3720,-143,1125,173
-331,838,3394,-121,1122,183
-532,802,2889,-59,1079,144
-652,723,2574,-8,955,84
-628,712,2557,1,799,40
-559,627,2602,3,676,3
-549,584,2550,4,581,-15
-477,483,2426,0,495,-24
-380,194,2246,-48,398,0
-336,153,2182,-122,280,78
-378,319,2114,-123,174,119
-481,362,1822,-120,69,110
-530,255,1584,-104,-67,66
-402,52,1672,-48,-244,10
-246,-5,1978,8,-387,-10
-171,20,2044,30,-471,1
-118,19,2162,19,-548,30
-67,-6,2313,12,-610,59
-141,-79,2234,7,-660,94
-199,117,2292,21,-747,131
-199,117,2292,21,-747,131
-159,361,2507,46,-846,120
-87,461,2857,69,-922,80
47,331,3151,101,-948,49
95,238,3135,99,-949,76
-1,455,3057,63,-975,130
-16,473,2753,41,-1023,125
10,198,3043,36,-1131,86
145,307,3179,139,-1163,63
298,665,2920,197,-1240,17
