acc_X,acc_Y,acc_Z,gyro_X,gyro_Y,gyro_Z
-71,-1117,4451,533,-59,621
70,-779,4611,595,-25,634
105,-548,4636,604,44,630
105,-548,4636,604,44,630
70,-441,4532,597,111,630
-4,-399,4348,570,161,655
-101,-281,4202,533,183,706
-184,-12,4110,520,187,760
-266,286,3988,529,184,784
-327,607,3828,535,174,769
-311,906,3763,535,147,714
-167,1127,3733,572,106,612
40,1137,3853,584,71,497
159,1134,3867,521,71,424
247,1010,3934,356,86,413
224,887,3942,275,105,426
44,945,3870,208,147,470
-126,1298,3718,176,182,516
-228,1610,3457,180,190,485
-333,1654,3253,140,167,396
-377,1572,3250,117,111,306
-342,1548,3221,134,59,238
-378,1467,3133,34,29,207
-439,1382,3071,-62,-5,196
-437,1327,2994,-99,-52,174
-438,1204,2976,-162,-98,154
-446,1029,3004,-197,-144,134
-440,805,2905,-193,-180,116
-491,519,2717,-219,-215,117
-563,342,2558,-248,-274,151
-576,243,2426,-236,-353,178
-589,168,2421,-211,-448,184
-529,221,2619,-125,-548,168
-336,418,2912,-3,-616,119
-210,493,3183,41,-628,51
-226,394,3163,49,-599,-10
-243,140,2897,-26,-587,-29
-223,-230,2752,-141,-643,-1
-174,-506,2833,-184,-743,70
-96,-429,2992,-207,-818,155
51,-183,3099,-118,-893,183
230,123,3378,-5,-965,152
339,265,3801,78,-1007,95
467,294,4178,89,-993,60
525,91,4442,58,-916,29
413,-83,4473,26,-825,53
346,96,4470,9,-778,125
329,343,4454,21,-752,155
267,587,4525,5,-738,140
332,917,4696,9,-748,93
543,1120,5017,-8,-754,2
727,1126,5438,-51,-727,-94
828,944,5683,-85,-651,-161
843,696,5717,-171,-549,-155
805,736,5836,-234,-470,-101
794,1002,6044,-205,-397,-78
870,1372,6199,-151,-298,-110
885,1512,6224,-132,-178,-197
881,1344,6047,-145,-63,-284
859,1065,5771,-227,21,-324
891,816,5618,-291,50,-304
961,816,5576,-316,62,-255
961,864,5516,-340,90,-217
1013,959,5501,-348,139,-196
1047,1064,5356,-331,215,-224
935,987,5145,-322,295,-279
888,929,4863,-340,370,-311
817,840,4497,-368,421,-347
693,761,4217,-402,432,-373
627,727,4104,-397,418,-392
577,785,3920,-377,413,-421
521,965,3797,-362,397,-470
506,1026,3835,-359,395,-550
506,1026,3835,-359,395,-550
486,933,3851,-354,422,-641
437,822,3739,-325,467,-713
367,760,3536,-328,509,-743
288,838,3238,-379,524,-753
194,856,3037,-418,484,-783
129,701,2930,-474,415,-818
49,582,2832,-545,338,-837
-24,446,2747,-591,257,-865
-85,79,2556,-590,156,-907
-53,-204,2571,-541,27,-915
-119,-247,2629,-397,-74,-934
-48,-294,2521,-285,-148,-969
32,-456,2556,-222,-244,-1020
182,-695,2594,-166,-345,-1056
306,-980,2624,-209,-418,-1043
255,-1135,2770,-256,-479,-985
313,-1126,2820,-188,-528,-924
369,-1126,2717,-139,-559,-879
311,-1111,2723,-174,-607,-829
258,-1014,2931,-179,-675,-766
205,-787,3075,-74,-732,-713
240,-667,3106,58,-762,-705
407,-902,3222,152,-815,-748
656,-1194,3512,206,-907,-751
1019,-1170,3752,185,-940,-677
1115,-1204,3835,18,-896,-561
896,-1232,3925,-123,-870,-414
727,-1053,3966,-171,-865,-282
737,-829,3772,-119,-855,-231
772,-883,3492,-85,-869,-259
814,-1096,3447,-110,-927,-280
946,-1246,3534,-103,-1000,-282
1230,-1408,3640,-117,-1047,-262
1482,-1750,3819,-188,-1063,-237
1441,-2055,4108,-269,-1064,-144
1396,-2064,4242,-265,-1025,-2
1404,-1956,4295,-231,-970,103
1443,-1702,4677,-156,-940,167
1450,-1561,4666,52,-857,174
1335,-1599,4203,212,-809,187
1269,-1740,4023,212,-852,232
1207,-1989,4011,166,-924,304
1192,-2221,3820,178,-988,395
1353,-2389,3918,274,-1064,462
1476,-2272,4329,466,-1124,525
1822,-1750,4718,678,-1100,595
2063,-1598,4155,811,-1017,595
2135,-1582,4216,774,-1066,638
2306,-1545,5014,770,-1075,731
2429,-1336,5505,839,-910,838
2428,-977,5434,949,-676,921
2433,-471,5140,1047,-487,970
2395,-211,4882,1100,-373,943
2215,-302,4779,1064,-309,906
2079,-336,4798,1023,-271,931
2137,-216,4769,1066,-240,965
2224,-21,4836,1115,-206,993
2345,322,5089,1142,-154,1019
2573,757,5356,1162,-50,1006
2748,1114,5565,1113,92,956
2805,1284,5672,990,275,896
2805,1235,5543,827,473,856
2696,1076,5265,640,634,869
2535,955,4959,508,741,927
2333,1043,4700,422,805,995
2110,1294,4563,419,842,1025
1901,1622,4325,537,856,971
1534,1605,3949,494,893,887
1361,1542,3605,424,891,815
1240,1579,3365,511,833,709
1240,1579,3365,511,833,709
1138,1629,3049,576,763,583
1113,1499,2831,575,667,458
1256,1405,2767,515,555,377
1443,1297,2746,411,463,311
1516,1095,2718,259,403,280
1449,1156,2715,137,372,300
1342,1264,2546,143,335,268
1351,1111,2311,126,264,197
1305,961,2235,-35,182,180
1253,893,2266,-155,84,178
1267,963,2412,-220,-17,169
1264,1059,2619,-345,-96,127
1147,884,2962,-377,-157,35
1077,678,3219,-322,-175,-27
1180,558,3297,-313,-167,-65
1298,355,3386,-330,-167,-105
1373,42,3653,-330,-172,-120
1387,-113,3967,-308,-155,-78
1419,-57,4136,-242,-107,-17
1446,-71,4157,-152,-48,10
1473,-123,4126,-65,-3,30
1481,-63,3964,19,15,56
1435,-59,4088,-53,23,112
1350,100,4070,119,19,87
1261,267,4081,279,18,29
1219,334,4085,400,25,-46
1162,353,3988,524,25,-126
1165,315,3814,583,10,-179
1205,167,3798,547,-22,-194
1269,42,3891,489,-63,-159
1414,-10,4063,438,-85,-83
1469,73,4166,399,-67,2
1429,242,4150,369,-24,78
1397,449,3989,410,2,104
1322,522,3801,418,1,92
1307,458,3695,364,-21,79
1339,276,3928,261,-38,94
1376,376,3939,300,-46,104
1444,546,3827,327,-54,83
1395,562,3802,279,-52,42
1441,418,3846,186,-42,16
1500,267,3961,136,-34,12
1460,254,3940,131,-8,25
1406,273,3877,92,26,49
1402,321,3814,100,36,60
1345,386,3766,116,33,66
1306,495,3647,155,23,60
1302,461,3548,165,-9,24
1331,290,3633,114,-48,7
1340,177,3730,88,-70,21
1377,208,3796,97,-75,57
1458,291,3800,122,-68,87
1528,295,3800,82,-54,113
1555,327,3988,40,-38,139
1536,484,4055,79,-4,149


38,-20,3764,-131,-389,-354
274,-504,4173,-153,-444,-332
524,-564,4573,-171,-416,-235
665,-515,4618,-185,-310,-139
546,-304,4558,-255,-193,-53
287,87,4466,-306,-94,-17
-2,237,4259,-269,-31,-60
-179,60,4129,-186,-14,-128
-308,-267,3989,-130,-29,-147
-298,-418,3847,-101,-73,-101
-185,-253,3881,-118,-143,-21
-20,-14,4080,-143,-200,21
255,-219,4344,-103,-218,-11
445,-566,4714,-29,-178,-28
448,-438,4863,3,-60,32
278,-156,4599,32,77,71
-28,-148,4123,18,157,74
-248,-308,3867,-10,143,78
-389,-572,3756,-13,86,92
-405,-756,3740,-29,17,146
-353,-694,3931,-40,-50,219
-284,-320,4129,-18,-80,268
-286,53,4096,12,-78,252
-262,17,4089,-4,-89,197
-203,-346,4244,-30,-105,175
-231,-599,4268,-27,-100,231
-290,-719,4082,-69,-86,341
-233,-1044,3876,-166,-93,455
-156,-1362,3986,-275,-131,589
-50,-1239,4280,-242,-150,704
76,-1151,4247,-87,-118,705
155,-1252,4129,32,-89,676
199,-1099,4264,108,-75,679
271,-794,4400,210,-44,672
319,-420,4441,314,2,654
221,-171,4167,330,54,645
32,-162,3891,254,46,659
-12,-181,4001,195,-20,697
145,-137,4231,211,-69,739
323,-29,4379,225,-71,784
464,288,4465,200,-40,831
518,545,4419,138,17,843
462,576,4283,73,65,816
368,703,4263,55,91,786
368,703,4263,55,91,786
245,762,4107,93,118,725
172,623,3914,113,121,674
123,458,3847,85,104,675
76,439,3867,20,94,726
40,827,3910,-1,92,781
37,1431,3825,41,99,751
-9,1652,3696,56,91,621
-32,1501,3639,24,61,494
-28,1218,3620,-15,27,421
-5,919,3600,-85,2,411
-22,987,3736,-156,-20,460
13,1427,3858,-139,-20,475
43,1706,3709,-79,2,391
105,1659,3596,-73,-6,266
122,1372,3644,-109,-28,179
65,1148,3528,-179,-32,174
-56,1026,3259,-281,-53,218
-128,950,3101,-398,-111,261
-109,894,3133,-465,-181,266
-155,796,3193,-444,-230,239
-213,713,2965,-385,-256,208
-291,493,2527,-401,-304,176
-343,120,2370,-458,-419,158
-294,-81,2384,-489,-538,175
-97,45,2531,-481,-633,179
131,222,2899,-424,-691,120
243,196,3157,-382,-683,37
192,-44,3069,-367,-660,-13
172,-244,2905,-392,-688,16
288,-111,3086,-474,-765,106
437,70,3406,-485,-816,135
499,-10,3573,-455,-823,106
538,94,4018,-466,-809,92
485,251,4240,-380,-750,32
474,156,4163,-255,-695,-61
410,-159,4159,-241,-683,-99
407,-266,4203,-297,-694,-48
499,-264,4228,-337,-719,-10
618,-437,4712,-289,-768,2
857,-241,5311,-232,-728,48
1035,209,5526,-150,-631,52
1157,497,5664,-94,-543,0
1259,261,5765,-131,-450,-63
1304,-214,5757,-167,-363,-75
1231,-390,5730,-202,-287,1
1221,-182,5727,-180,-216,93
1188,-31,5554,-107,-139,105
1039,16,5337,-38,-76,69
986,350,5148,-36,-33,37
971,505,5057,-36,-16,-51
928,349,5056,-9,-13,-159
950,310,5071,-17,2,-214
1005,336,5126,-14,17,-240
1178,341,5193,-25,52,-253
1216,239,5246,-80,116,-241
1088,376,5235,-123,197,-183
967,633,4982,-105,280,-157
842,635,4594,-99,336,-196
729,534,4369,-118,340,-241
801,444,4260,-133,317,-270
950,310,4361,-159,288,-291
984,282,4426,-181,300,-293
915,398,4256,-189,343,-302
861,515,4108,-174,365,-347
872,536,4141,-160,375,-416
831,422,4103,-145,405,-484
694,360,4020,-143,434,-519
501,555,3890,-178,448,-517
501,555,3890,-178,448,-517
376,698,3669,-186,438,-564
247,601,3494,-202,397,-644
176,505,3365,-259,337,-688
260,470,3369,-314,261,-714
314,282,3542,-394,202,-745
341,54,3617,-458,180,-752
269,-28,3540,-498,171,-734
193,89,3394,-516,152,-721
249,163,3313,-501,106,-757
366,161,3430,-469,46,-826
476,105,3545,-437,16,-900
552,-28,3440,-393,8,-971
536,-278,3230,-388,-6,-1026
455,-521,3023,-446,-41,-1037
420,-540,2880,-549,-97,-1002
477,-543,2822,-637,-175,-998
508,-784,2938,-705,-262,-1021
545,-1073,3014,-765,-317,-1003
569,-1296,2954,-799,-349,-953
522,-1403,2894,-795,-385,-906
490,-1392,2662,-759,-426,-867
540,-1297,2519,-713,-503,-846
703,-1315,2628,-650,-602,-878
871,-1572,2727,-598,-675,-915
940,-1809,2728,-572,-730,-890
1022,-1955,2873,-566,-782,-837
1030,-2156,3080,-503,-810,-797
954,-2258,3102,-466,-797,-708
985,-2182,3242,-398,-794,-606
1093,-1846,3439,-304,-784,-523
1083,-1770,3277,-242,-753,-479
1111,-1836,3191,-192,-806,-427
1229,-1859,3526,-208,-867,-363
1195,-1850,3711,-210,-864,-305
1113,-1819,3494,-176,-843,-254
1112,-1733,3390,-154,-871,-212
1090,-1796,3431,-153,-918,-197
1141,-1922,3663,-115,-965,-186
1244,-1900,3828,-56,-971,-151
1328,-1687,3808,-35,-960,-94
1546,-1667,3951,-51,-968,-66
1652,-2042,4134,-67,-959,-38
1599,-2352,4046,-88,-918,68
1568,-2530,3898,-76,-888,204
1535,-2527,4003,1,-873,324
1524,-2297,3942,118,-831,416
1555,-2025,3971,248,-803,440
1641,-1939,4211,369,-783,418
1762,-1910,4434,442,-735,410
1928,-1955,4479,481,-665,425
2087,-2060,4623,517,-611,468
2238,-2051,4930,572,-541,542
2177,-1863,4808,609,-429,640
2086,-1637,4505,598,-347,714
2017,-1623,4410,597,-306,733
2029,-1478,4471,646,-284,753
2210,-1183,4604,727,-247,749
2431,-1158,5000,844,-207,703
2544,-1254,5510,958,-46,695
2538,-1568,4256,1105,129,763
2647,-1153,3761,1067,56,905
2576,-832,4225,881,-31,989
2432,-548,4684,821,-28,1027
2366,-169,4772,887,50,991
2201,-69,4613,933,151,900
2113,-73,4333,892,228,838
2054,-301,4263,848,252,797
1977,-320,4469,815,263,829
1892,-85,4453,807,314,883
1762,96,4318,784,374,897
1762,96,4318,784,374,897
1687,216,4239,783,416,875
1793,304,4276,857,437,819
1871,365,4219,846,467,785
1952,472,4273,769,510,784
1937,564,4155,765,556,754
1740,729,3712,681,598,739
1528,949,3355,589,566,687
1419,849,3376,510,474,578
1346,610,3498,436,415,498
1243,625,3506,363,392,479
1122,782,3407,342,370,457
1069,842,3275,334,348,404
1103,717,2980,304,322,339
1197,642,2907,236,258,295
1270,787,3034,140,196,277


-745,-755,3198,-164,-103,-690
-954,-996,3378,-153,-231,-685
-830,-1239,3704,-71,-341,-667
-504,-1687,3945,-11,-381,-598
-351,-1923,4473,-73,-335,-435
-449,-1620,4232,-18,-214,-249
-461,-712,3554,-4,-173,-145
-424,-298,3452,-12,-262,-220
-255,-456,3886,-39,-364,-323
-73,-918,4240,-23,-395,-384
-15,-1392,4396,-17,-365,-334
110,-1324,4485,-49,-306,-161
156,-810,4474,-92,-254,7
78,-471,4415,-99,-203,58
-26,-587,4176,-63,-170,31
-26,-587,4176,-63,-170,31
181,-683,4347,77,-198,8
181,-683,4347,77,-198,8
313,-699,4568,108,-168,17
331,-423,4687,117,-102,65
324,-48,4579,101,-18,87
194,-390,4343,89,30,34
-90,-981,4227,70,32,54
-355,-1210,3898,5,19,199
-338,-1182,3871,-91,-38,369
-247,-1079,4191,-68,-105,469
-163,-1133,4314,-4,-106,502
34,-1227,4393,2,-79,550
251,-1242,4668,27,-49,604
266,-912,4759,60,24,672
129,-454,4447,90,104,678
0,-652,4184,124,126,568
-6,-1169,4151,128,99,515
128,-1396,4310,128,67,588
223,-1104,4527,107,77,733
184,-698,4447,119,133,829
-58,-665,4015,98,174,853
-334,-752,3697,71,140,874
-374,-602,3693,136,56,882
-252,-487,4015,263,-24,830
-116,-363,4146,386,-35,786
-30,-252,3984,354,4,789
9,-105,3932,242,19,829
31,187,3968,169,15,869
87,256,3910,148,12,857
67,60,3822,141,0,838
58,131,3781,135,-14,866
96,447,3735,150,-26,873
194,704,3885,187,-48,825
251,867,4080,211,-38,767
178,888,3984,160,9,740
33,887,3682,108,33,740
-43,856,3566,88,9,733
-132,935,3520,85,-31,725
-101,1052,3424,68,-68,706
-13,984,3455,18,-112,665
153,1178,3788,-43,-149,660
343,1520,4023,-31,-128,608
286,1599,4049,16,-65,482
70,1510,3847,55,-2,355
-80,1321,3526,63,15,261
-139,1066,3349,13,-19,230
-146,882,3363,-78,-72,256
-172,986,3496,-157,-118,315
-207,1319,3525,-184,-142,346
-257,1471,3262,-186,-158,293
-257,1255,3018,-190,-222,192
-165,864,3126,-219,-319,121
-49,664,3375,-248,-377,109
19,649,3449,-250,-378,102
-29,699,3311,-245,-365,91
-92,635,3025,-272,-380,67
-90,253,2797,-380,-435,56
-9,-90,2902,-481,-530,94
114,-200,3020,-531,-601,147
122,-359,3046,-536,-639,154
189,-340,3175,-495,-689,158
329,-177,3498,-442,-719,150
363,96,3783,-392,-702,118
358,257,3963,-319,-660,50
213,86,3840,-221,-624,-33
229,-278,3667,-172,-635,-57
304,-618,3705,-208,-684,-4
385,-741,3902,-246,-727,90
485,-549,4231,-263,-739,177
578,-119,4734,-245,-703,222
634,268,4870,-195,-616,183
634,268,4870,-195,-616,183
645,309,4852,-125,-565,86
644,80,4794,-107,-540,25
629,-108,4719,-133,-538,28
631,-8,4875,-180,-559,72
715,389,5246,-168,-564,89
831,701,5373,-88,-510,6
943,404,5276,0,-446,-135
1111,-24,5250,-19,-402,-176
1188,-203,5479,-109,-369,-109
1171,-35,5704,-114,-308,-30
1160,394,5764,-76,-215,-4
1155,636,5815,-40,-115,-40
1169,703,5645,-70,-8,-99
1068,541,5439,-124,53,-154
994,597,5381,-165,77,-141
972,832,5261,-181,104,-138
916,988,5010,-171,136,-186
860,1019,4718,-178,148,-266
895,884,4652,-176,138,-351
1049,859,4766,-169,144,-412
1155,892,4903,-167,187,-454
1246,895,4811,-186,259,-470
1224,820,4713,-252,331,-471
1002,807,4444,-328,402,-452
810,874,4126,-389,431,-451
724,821,4072,-407,414,-494
660,750,4001,-421,412,-546
558,577,3749,-423,420,-599
423,470,3532,-415,399,-626
393,559,3452,-413,356,-646
413,500,3333,-411,323,-713
354,265,3193,-424,290,-792
349,219,3257,-436,241,-822
418,285,3320,-411,213,-862
392,251,3141,-404,204,-919
347,147,2887,-437,167,-965
427,72,2905,-473,85,-1002
582,-46,3157,-445,4,-1066
601,-238,3204,-396,-17,-1136
523,-551,2975,-421,-9,-1164
496,-752,2827,-458,-41,-1157
556,-852,2846,-453,-106,-1162
593,-1018,2897,-448,-156,-1171
566,-1191,2944,-476,-194,-1146
510,-1244,2919,-512,-226,-1086
459,-1167,2831,-525,-270,-1028
461,-1250,2692,-518,-330,-1014
491,-1473,2460,-520,-407,-1006
558,-1529,2277,-537,-525,-963
785,-1564,2457,-570,-676,-929
1098,-1680,2954,-556,-794,-929
1228,-1695,3306,-523,-815,-902
1277,-1596,3521,-535,-748,-870
1113,-1923,3162,-493,-676,-865
1012,-2170,3006,-456,-710,-790
1042,-2261,3157,-419,-768,-697
1031,-2164,3339,-356,-797,-597
996,-1826,3410,-303,-812,-493
1063,-1516,3541,-269,-844,-449
1087,-1383,3697,-241,-874,-443
1291,-1420,3759,-238,-897,-441
1519,-1774,3911,-275,-903,-429
1487,-2042,3881,-330,-870,-327
1404,-2040,3634,-371,-829,-193
1350,-2124,3452,-353,-825,-122
1353,-2288,3529,-274,-854,-87
1340,-2138,3677,-166,-866,-37
1453,-1933,3843,-54,-865,-26
1502,-1954,3951,25,-848,-45
1502,-1954,3951,25,-848,-45
1522,-2118,3888,63,-814,-22
1655,-2397,3701,95,-790,42
1681,-2684,3711,124,-787,146
1639,-2640,3937,186,-777,294
1669,-2279,4160,317,-741,411
1722,-1858,4197,460,-682,454
1910,-1706,4183,531,-639,436
1981,-1840,4316,534,-616,419
1927,-2003,4328,519,-582,464
1895,-2153,4058,503,-547,540
1841,-2239,3937,524,-561,619
1955,-2070,4187,619,-606,694
2159,-1726,4420,748,-598,743
2346,-1363,4485,875,-538,734
2515,-1266,4604,969,-471,683
2628,-1263,4802,1007,-398,674
2712,-1130,4919,986,-309,734
2683,-885,4787,899,-192,808
2443,-915,4405,843,-147,856
2362,-779,4642,767,-150,925
2300,-772,4854,752,-74,937
2115,-972,4576,799,55,930
2134,-543,4484,843,139,962
1873,-400,3258,982,218,887
1803,-356,3251,1143,-104,850
2366,27,5256,1125,-212,897
2568,157,5142,1176,26,847
2361,287,4544,1108,210,848
2274,662,4352,968,283,871
2185,666,4522,877,322,802
2043,335,4563,849,397,723
1875,157,4454,874,468,720
1733,414,4254,865,534,782
1706,757,4154,827,579,805
1630,1148,3824,936,578,730
1659,1320,3596,850,549,639
1804,1157,3596,678,488,529
1807,840,3708,523,437,462
1776,663,3742,423,426,454
1765,581,3648,355,439,462
1669,534,3478,304,450,467
1529,528,3478,210,449,484


438,-1087,4293,-164,-47,47
150,-1403,4083,-60,-99,72
278,-1519,4441,-23,-128,152
266,-1255,4646,24,-88,287
203,-716,4353,45,-8,399
293,-633,3992,39,7,399
286,-1014,4089,2,-37,361
124,-1321,4263,-25,-48,389
117,-1319,4363,8,-25,443
156,-1013,4549,97,18,474
67,-759,4383,233,91,449
-168,-606,4185,329,133,405
-295,-506,3993,388,134,369
-367,-454,3729,371,102,373
-391,-409,3784,308,23,406
-354,-286,3978,256,-50,457
-362,-197,3969,173,-80,514
-304,-300,3844,68,-110,566
-148,-434,3896,3,-160,606
-25,-509,4030,-16,-189,631
48,-536,4145,-56,-181,660
106,-412,4258,-85,-157,693
146,-253,4249,-61,-120,707
132,-300,4171,-30,-89,700
64,-551,4083,-15,-79,701
-10,-720,3973,35,-86,725
51,-805,3913,128,-99,734
133,-922,3865,189,-108,742
200,-991,3966,210,-116,777
426,-963,4230,308,-88,806
569,-512,4143,424,-31,848
648,232,4274,450,7,862
672,573,4463,437,69,784
447,543,4210,413,144,712
149,470,3724,343,153,694
24,426,3789,273,68,693
60,453,4027,296,2,686
211,490,4077,380,-17,657
277,506,4115,405,-11,615
287,652,4120,395,8,593
258,831,4035,391,33,569
229,836,3996,364,50,527
213,716,3980,327,61,504
127,687,3927,260,71,533
-25,1022,3837,201,74,595
-59,1465,3789,202,53,590
-49,1537,3805,239,17,490
-139,1443,3692,238,-2,413
-201,1394,3476,177,-36,372
-144,1144,3536,99,-101,337
-24,1149,3815,60,-146,350
97,1555,3913,42,-125,353
215,1799,3968,48,-96,282
251,1760,4082,41,-55,180
155,1617,4014,18,2,103
-37,1469,3649,3,44,61
-173,1260,3261,-44,32,28
-292,1004,2983,-121,-34,16
-227,701,2783,-204,-133,25
-227,701,2783,-204,-133,25
-153,273,2714,-291,-242,46
-138,90,2712,-332,-332,100
-92,281,2670,-342,-394,137
35,509,2650,-307,-455,94
225,530,2816,-287,-511,7
372,331,3042,-286,-539,-63
358,74,3083,-358,-536,-51
244,-145,3050,-466,-545,31
161,-262,3070,-506,-582,130
165,-257,3035,-472,-628,199
142,-395,2988,-407,-667,222
214,-644,2874,-291,-704,204
274,-751,3011,-182,-755,178
496,-419,3581,-59,-785,144
775,-33,4200,63,-733,63
758,43,4297,144,-620,-12
652,41,4017,81,-550,4
626,-138,4054,-29,-565,76
494,-136,4144,-87,-600,184
399,218,4147,-105,-634,265
442,417,4276,-90,-672,239
491,518,4767,-60,-704,161
560,811,5253,-5,-680,86
636,900,5262,40,-601,-6
640,451,4841,52,-551,-88
743,215,5013,-56,-579,-36
924,302,5610,-101,-578,45
1052,725,5978,-69,-479,94
1048,1258,5917,-39,-338,66
1062,1538,5827,-8,-247,-40
1178,1568,5871,-31,-199,-150
1365,1336,5957,-95,-159,-218
1520,1039,5988,-152,-100,-232
1472,920,5886,-201,-14,-195
1352,1108,5543,-215,69,-149
1330,1262,5198,-241,113,-161
1332,1075,4996,-303,136,-222
1174,848,4741,-362,154,-257
1102,858,4689,-392,163,-260
1208,918,4773,-374,196,-286
1224,1005,4820,-367,270,-331
1046,1094,4576,-379,366,-380
842,1003,4110,-408,420,-441
672,730,3939,-440,399,-504
623,693,3926,-448,367,-532
629,693,3762,-476,354,-567
589,588,3767,-509,328,-613
581,552,3786,-506,313,-643
497,532,3562,-499,318,-680
416,437,3341,-488,299,-732
445,345,3205,-466,248,-782
561,174,3098,-490,201,-814
598,-73,3137,-534,151,-823
587,-58,3165,-580,115,-796
579,164,3199,-628,90,-787
584,223,3223,-600,65,-868
573,48,3293,-519,47,-995
574,79,3361,-380,30,-1098
715,166,3203,-233,7,-1192
712,-181,3011,-195,-37,-1303
559,-858,2915,-331,-108,-1313
546,-1361,3014,-575,-181,-1166
569,-1510,3170,-680,-234,-970
665,-1018,3291,-653,-283,-802
826,-759,3418,-511,-329,-757
1004,-676,3111,-533,-327,-743
991,-881,2847,-736,-354,-758
851,-1167,3016,-871,-431,-765
851,-1167,3016,-871,-431,-765
853,-1266,3047,-884,-464,-770
862,-1423,2799,-897,-480,-803
774,-1687,2785,-881,-545,-823
670,-1699,2739,-809,-615,-808
781,-1818,2567,-738,-696,-808
914,-2184,2501,-663,-809,-816
1008,-2365,2727,-613,-924,-747
1224,-2264,3010,-527,-997,-648
1414,-2183,3414,-446,-1022,-561
1512,-2060,3694,-356,-985,-466
1518,-1820,3611,-317,-909,-357
1381,-1523,3571,-304,-860,-282
1194,-1264,3397,-302,-836,-261
1182,-1306,3341,-299,-864,-304
1171,-1549,3278,-312,-911,-330
1149,-1733,3208,-347,-979,-303
1273,-1914,3265,-363,-1062,-264
1452,-2202,3370,-335,-1120,-234
1507,-2386,3676,-278,-1136,-168
1636,-2397,3954,-125,-1110,-79
1764,-2085,4140,30,-1062,23
1795,-1822,4218,124,-983,86
1661,-1960,4066,200,-902,100
1580,-2048,3799,237,-857,149
1549,-2409,3475,294,-848,177
1571,-2695,3573,414,-920,264
1838,-2326,3966,537,-964,401
2044,-2014,4283,619,-912,464
2064,-1929,4245,694,-825,487
2163,-1808,4183,756,-758,505
2300,-1787,4208,844,-703,495
2400,-1567,4375,914,-658,519
2584,-1175,4596,980,-601,534
2785,-971,4701,1020,-520,514
2886,-863,4707,1006,-436,514
2894,-997,4360,961,-349,515
2724,-1369,3861,947,-383,559
2825,-1241,4505,900,-466,687
2909,-978,5158,893,-374,774
2752,-476,5367,934,-165,827
2543,-19,5000,960,50,820
2328,-3,4621,938,177,759
2112,-230,4621,930,205,710
2015,-243,4714,915,232,746
2077,-191,4559,895,294,796
2158,-279,4343,892,340,832
2175,-68,4168,882,349,897
2361,449,4522,862,356,945
2574,646,4707,864,459,882
2522,430,4580,863,587,796
2385,331,4376,844,678,786
2214,411,4151,808,732,808
2089,483,3995,768,757,798
2011,191,3849,808,754,754
2034,-2,3829,843,744,784
2037,264,3636,831,757,870
2003,903,3229,737,750,941
1962,1516,2939,637,687,899
1927,1914,2852,582,576,733
1939,1672,2873,446,467,499
1875,958,3048,314,380,325
1697,597,3230,175,350,305
1509,715,3138,74,360,348
1392,778,2895,39,351,333
1261,675,2718,20,302,279
1197,656,2629,-5,233,243
1270,637,2799,-39,143,205
1357,501,3115,-77,78,156
1337,352,3326,-112,70,134
1242,314,3344,-113,87,125
1242,314,3344,-113,87,125


-319,-774,3780,194,8,604
-271,-763,4014,100,-30,719
-116,-441,4171,111,-15,802
-83,-197,4115,145,29,816
-169,133,3966,104,73,824
-210,216,3794,96,73,782
-251,-90,3781,171,26,699
-318,-459,3671,211,-8,677
-353,-376,3608,169,-46,743
-278,138,3717,130,-93,796
-65,571,4010,153,-131,750
52,829,4353,217,-126,657
130,943,4352,282,-68,574
40,570,3986,263,-15,514
-273,273,3669,138,-23,566
-407,382,3600,17,-81,664
-312,557,3806,-8,-151,687
-96,794,4141,31,-184,656
50,938,4171,24,-160,604
34,574,4060,-12,-137,530
-11,361,4198,-16,-130,499
93,666,4323,15,-93,503
235,721,4134,40,-48,447
95,345,3866,-59,-31,413
-258,-210,3951,-352,-31,498
29,524,4322,-255,-70,584
-61,583,4101,-207,-35,500
-300,183,3708,-191,-46,400
-155,404,3907,-225,-125,422
42,395,4127,-390,-150,436
42,395,4127,-390,-150,436
83,687,4410,-331,-128,414
83,687,4410,-331,-128,414
49,433,4146,-281,-93,327
78,228,4377,-234,-104,306
82,450,4394,-223,-60,340
-40,546,4015,-253,-19,320
-121,549,4160,-264,-50,287
-46,625,4335,-249,-52,268
-28,485,4217,-215,-27,230
-113,465,4107,-209,-19,213
-172,624,4077,-158,-26,181
-178,571,3906,-97,-25,115
-135,510,3879,-119,-43,82
-46,510,4031,-121,-67,60
77,457,4099,-98,-68,41
130,380,4033,-114,-56,47
82,340,3855,-176,-52,69
4,322,3671,-223,-72,76
32,253,3627,-215,-109,48
130,72,3595,-183,-133,-4
206,-150,3601,-185,-137,-27
128,-290,3603,-195,-127,3
86,-200,3339,-191,-113,50
127,-162,3090,-191,-144,66
149,-165,2971,-289,-193,86
127,-195,2905,-372,-247,99
116,-292,2703,-432,-299,98
166,-412,2815,-419,-382,84
158,-415,3112,-424,-425,86
55,-252,3357,-374,-421,79
-102,-117,3155,-246,-402,16
-206,-195,2805,-182,-437,-42
-35,-320,2823,-162,-538,-70
142,-605,3092,-145,-623,-69
165,-480,3108,-192,-644,8
275,-263,3074,-225,-661,51
365,-516,3150,-220,-701,11
316,-738,3522,-210,-748,16
358,-426,3900,-162,-745,69
430,-24,4041,-102,-706,53
350,-68,4109,-93,-670,-18
285,-429,4039,-129,-653,-56
243,-810,3941,-169,-677,-23
290,-768,4050,-197,-727,71
415,-381,4478,-169,-755,124
562,50,4782,-44,-727,80
562,126,4736,3,-668,-9
539,-210,4769,-37,-654,-75
551,-372,5148,-59,-664,-75
713,-247,5253,8,-631,-64
996,-229,5079,52,-580,-75
1113,-230,5184,-44,-553,-44
1209,-170,5389,-98,-506,-13
1161,-336,5293,-80,-425,-23
1036,-365,5183,-97,-369,-3
1023,-216,5272,-100,-338,8
1036,25,5383,-45,-292,-22
1057,348,5399,20,-235,-86
1148,459,5238,48,-191,-166
1255,248,5188,1,-180,-220
1385,181,5396,-73,-175,-202
1498,188,5531,-111,-123,-180
1497,176,5499,-129,-31,-169
1571,371,5473,-153,60,-173
1618,217,5431,-158,163,-222
1475,54,5196,-183,270,-228
1268,326,4836,-243,339,-205
1128,0,4718,-195,347,-248
1101,-12,4697,-148,360,-238
1080,312,4495,-100,389,-241
964,483,4178,-102,406,-304
964,483,4178,-102,406,-304
826,508,3862,-200,392,-382
838,357,3969,-275,336,-463
858,124,4218,-280,310,-514
909,145,4113,-265,336,-515
907,72,3772,-321,368,-514
794,-5,3720,-394,364,-511
672,206,3729,-422,366,-509
507,391,3317,-436,387,-559
415,350,2931,-512,353,-647
404,169,2840,-600,272,-736
501,-151,2796,-689,200,-796
588,-429,2800,-740,132,-821
636,-347,2921,-777,78,-806
740,-229,3106,-695,35,-850
789,-111,3169,-547,26,-940
765,14,2972,-465,35,-1055
749,-215,2981,-424,-6,-1199
731,-615,2933,-378,-59,-1301
737,-939,2739,-366,-111,-1329
821,-1276,2821,-327,-198,-1340
808,-1377,3182,-281,-267,-1302
829,-1421,3286,-299,-267,-1237
887,-1803,3128,-448,-239,-1147
737,-1914,2975,-542,-260,-987
669,-1641,2868,-562,-321,-834
841,-1583,2915,-516,-403,-800
959,-1684,3073,-462,-464,-797
1111,-1686,3245,-433,-485,-764
1222,-1759,3422,-390,-489,-745
1250,-1764,3462,-333,-469,-710
1182,-1672,3173,-289,-444,-678
1090,-1641,2892,-278,-479,-686
1050,-1798,2987,-287,-567,-720
1021,-2041,3247,-269,-641,-705
1160,-2000,3403,-276,-674,-635
1315,-2043,3521,-299,-686,-573
1350,-2151,3637,-296,-700,-495
1335,-2199,3545,-296,-700,-397
1292,-2246,3634,-281,-710,-317
1233,-2143,3894,-209,-703,-253
1272,-1975,3828,-103,-651,-222
1283,-2107,3593,-26,-616,-228
1252,-2299,3323,21,-636,-192
1276,-2215,3223,43,-704,-106
1318,-2145,3366,71,-783,-42
1416,-2115,3384,151,-854,0
1555,-2046,3505,204,-905,38
1635,-2102,3549,218,-914,76
1570,-2150,3654,229,-917,130
1493,-1771,3896,284,-918,199
1644,-1314,4039,350,-879,198
1866,-1344,4086,411,-822,105
1921,-1507,4202,411,-768,78
1968,-1633,4288,385,-699,130
1961,-1698,4131,413,-627,214
1940,-1477,4015,482,-580,295
1838,-1471,3385,585,-610,315
1946,-1501,3908,632,-746,370
2061,-1360,4273,637,-769,452
2092,-1127,4438,636,-714,515
2171,-1054,4198,615,-610,531
2189,-1260,4034,594,-552,517
2214,-1407,4144,637,-519,532
2316,-1248,4320,704,-458,584
2388,-908,4285,767,-369,619
2405,-735,4383,788,-300,625
2419,-577,4674,800,-238,642
2434,-480,4629,785,-129,660
2434,-480,4629,785,-129,660
2319,-511,4255,756,-36,673
2158,-513,3961,724,-17,703
2133,-530,4218,701,-50,725
2168,-449,4629,705,-38,750
2252,-458,4736,717,41,767
2273,-679,4695,690,140,803
2312,-782,4827,700,228,881
2404,-905,5002,762,339,957
2446,-900,4927,834,495,1060
2451,-465,4660,908,648,1187
2359,456,4214,962,742,1262
2166,1569,3618,909,748,1207
2057,1577,3690,754,628,930
1995,732,4043,619,526,661
2007,6,4156,531,514,581
2112,-366,4150,469,536,648
2182,-332,4075,428,579,778
2225,-212,3984,410,634,885
2252,112,3927,332,708,961
2096,500,3348,269,789,971
1876,801,2473,213,769,906
1831,717,2609,95,599,774
1708,754,3217,13,479,661
1532,1022,3298,8,477,562
1371,947,2913,-42,487,410
1149,589,2715,-182,435,259
929,46,2729,-225,346,170
887,-174,2653,-205,263,176


653,-1018,4737,-133,-100,781
671,-429,4827,-53,23,861
620,530,4808,43,135,871
369,684,4595,36,240,760
369,684,4595,36,240,760
21,170,4280,8,283,669
-196,-47,4061,-36,259,706
-399,-281,3792,-183,215,788
-270,-513,3709,-233,125,875
-19,-229,3921,-74,-7,920
62,-181,4172,18,-52,882
123,-103,4343,89,-33,839
452,420,4688,134,22,822
526,827,4790,176,142,737
258,701,4352,157,263,634
-28,263,3915,94,283,595
-283,58,3745,16,228,637
-366,147,3680,-58,157,697
-269,261,3737,-88,79,700
-198,417,3907,-92,7,678
-117,606,4028,-101,-23,645
-17,474,3933,-97,-27,581
137,5,3963,-165,-31,547
174,38,4193,-236,-20,611
129,450,4233,-211,40,645
35,389,4035,-171,108,571
-153,270,3883,-99,122,511
-345,300,3668,-63,99,483
-408,249,3642,-79,32,460
-305,272,3789,-32,-48,442
-233,197,3754,-5,-91,431
-194,109,3663,-23,-131,442
-51,145,3754,-17,-177,444
155,71,3922,-40,-192,434
185,113,4244,-48,-173,443
128,561,4386,-72,-104,480
105,1109,4295,-38,-37,441
14,1133,4161,33,-8,307
-16,924,4052,77,-14,202
27,597,3944,83,-34,147
61,458,4039,41,-62,168
73,793,4244,29,-65,208
73,1119,4217,49,-33,171
34,1118,3980,52,-9,72
56,828,3886,43,-35,-18
123,648,4145,2,-58,-41
141,712,4187,-11,-33,-30
75,724,3996,-13,2,-37
15,760,3799,-45,3,-55
24,622,3647,-68,-26,-92
63,349,3566,-75,-65,-113
72,270,3498,-92,-95,-98
86,342,3300,-130,-113,-92
58,7,3012,-162,-148,-136
58,-502,2941,-190,-209,-137
98,-635,2979,-219,-259,-59
130,-413,2890,-241,-279,25
125,-260,2783,-222,-299,32
140,-355,2692,-208,-327,1
94,-705,2524,-216,-363,-18
46,-968,2564,-235,-429,14
24,-776,2975,-192,-496,69
36,-220,3174,-80,-506,82
13,-44,3092,-15,-502,4
-65,-295,2966,-52,-536,-58
-46,-559,3093,-101,-616,-38
85,-479,3429,-69,-689,27
180,-207,3576,-38,-704,69
186,-42,3728,-53,-715,75
242,-163,4160,30,-729,32
246,-267,4125,154,-700,-1
236,-231,4010,204,-699,4
371,-64,3996,220,-723,32
371,-64,3996,220,-723,32
580,-74,3973,135,-749,41
624,-362,4251,16,-784,61
654,-353,4745,-30,-783,122
631,16,4917,24,-715,142
612,359,4902,90,-641,95
664,434,4983,127,-595,1
619,226,5010,96,-558,-59
563,104,4999,58,-545,-49
613,102,5042,52,-555,-17
778,116,5159,58,-554,1
1003,171,5323,54,-534,18
1242,233,5602,34,-499,39
1371,294,5802,26,-417,46
1359,252,5708,29,-303,30
1270,249,5516,5,-207,15
1221,304,5502,-16,-144,-4
1210,360,5618,-5,-81,-30
1211,542,5593,1,1,-38
1182,788,5407,-33,76,-47
1123,910,5257,-85,123,-74
1048,904,5075,-106,149,-112
1031,910,4874,-128,160,-141
1166,831,4809,-194,162,-172
1201,685,4833,-276,182,-191
1173,764,4819,-315,217,-189
1189,840,4819,-336,268,-218
1154,819,4579,-365,330,-275
1088,623,4388,-416,364,-331
953,441,4283,-447,384,-362
783,281,4132,-362,397,-398
773,299,3966,-270,403,-414
816,577,3790,-283,410,-435
774,699,3697,-315,398,-515
693,647,3748,-318,377,-618
622,364,3660,-310,377,-719
541,-58,3516,-301,372,-776
480,-157,3558,-253,345,-759
490,-64,3576,-176,335,-744
438,-129,3355,-159,344,-752
352,-158,3197,-260,331,-710
333,-7,3135,-322,288,-682
311,29,2999,-347,241,-722
278,-133,2894,-374,181,-798
287,-247,2959,-402,104,-854
381,-208,3099,-383,35,-895
491,-245,3198,-351,-10,-945
560,-432,3209,-327,-46,-972
608,-601,3145,-343,-78,-941
621,-658,3049,-366,-125,-885
564,-726,2976,-388,-185,-860
528,-871,3026,-380,-259,-860
480,-891,3026,-340,-315,-860
452,-876,3030,-302,-367,-871
486,-986,3050,-243,-426,-913
485,-1346,3013,-281,-461,-911
475,-1431,2918,-355,-499,-833
556,-1653,2863,-226,-572,-803
697,-1691,2852,-149,-642,-734
881,-1498,3045,-195,-702,-664
1008,-1381,3245,-264,-726,-612
1024,-1302,3325,-300,-733,-575
989,-1161,3364,-328,-753,-550
1011,-1122,3403,-351,-780,-534
1126,-1207,3392,-387,-811,-523
1242,-1462,3415,-420,-852,-507
1301,-1708,3560,-463,-885,-436
1378,-1734,3669,-460,-891,-332
1340,-1646,3644,-429,-874,-248
1261,-1504,3571,-407,-855,-194
1261,-1504,3571,-407,-855,-194
1259,-1544,3601,-343,-854,-208
1224,-1806,3570,-251,-845,-245
1203,-1983,3682,-166,-846,-216
1271,-1760,4019,-66,-844,-146
1243,-1765,3894,49,-816,-101
1326,-1703,3813,115,-849,-19
1605,-1701,3920,107,-889,54
1724,-1981,3985,75,-897,126
1676,-2144,3960,63,-898,257
1724,-2117,3936,105,-878,362
1746,-2003,4069,219,-851,404
1798,-1618,4212,352,-808,432
1968,-1367,4163,471,-753,400
2002,-1528,4060,538,-714,348
1861,-1691,4054,565,-697,371
1783,-1607,4069,602,-686,437
1871,-1442,4141,679,-678,466
1949,-1278,4186,767,-669,470
2108,-1104,4098,760,-644,496
2316,-1166,3582,706,-676,518
2465,-1199,4173,618,-805,592
2609,-1057,4892,575,-783,684
2630,-925,5105,632,-630,731
2573,-740,5015,712,-458,761
2575,-540,4817,777,-321,770
2485,-383,4605,787,-230,766
2371,-234,4418,735,-175,759
2296,-120,4247,673,-160,715
2414,-411,4625,646,-180,644
2550,-885,5234,656,-111,666
2489,-817,5289,687,61,807
2365,-538,4907,732,220,935
2360,-454,4711,777,301,995
2417,-398,4955,833,351,1043
2533,-40,5338,902,453,1111
2642,388,5378,972,632,1135
2606,708,5152,996,816,1101
2427,966,4917,963,950,1065
2298,1103,4709,949,1018,1006
2118,1063,4441,932,1031,929
1812,959,4290,761,1039,925
1603,1027,4099,647,1025,937
1501,1138,3862,603,996,891
1443,1209,3616,566,957,812
1494,1156,3412,477,913,725
1669,1012,3316,381,878,637
1755,1005,3234,234,859,589
1793,1128,2990,81,837,560
1685,1145,2699,-40,775,504
1533,1075,2544,-132,668,428
1375,848,2469,-191,559,320
1163,555,2292,-274,475,239
928,317,2055,-358,378,207
827,111,1970,-400,246,192
860,-90,2121,-398,109,174
854,-227,2416,-396,7,179


181,-1788,4520,411,-200,222
286,-1669,4787,510,-151,325
325,-1163,4859,649,-58,405
228,-820,4681,754,48,408
140,-765,4519,806,121,396
141,-727,4330,837,151,407
31,-844,4159,806,153,426
-148,-872,4082,709,143,491
-126,-441,4098,721,120,536
-1,-104,4168,825,95,474
48,-152,4182,877,86,399
73,-396,4121,841,90,405
106,-410,4162,728,89,524
99,28,4111,626,103,685
79,502,4061,496,116,769
61,781,4069,415,109,753
79,678,4242,458,104,665
3,169,3888,571,121,596
-103,25,3709,585,71,621
-77,427,3985,542,22,674
131,704,4124,525,39,660
316,572,4053,530,77,610
275,497,4034,479,109,620
156,718,4052,404,151,675
6,870,3920,337,194,688
-144,835,3837,312,198,657
-201,866,3815,352,172,624
-225,1010,3759,418,146,584
-250,1160,3665,419,118,552
-136,1283,3798,400,73,512
-126,1301,3899,440,52,435
-162,1216,3826,437,59,387
-93,1179,3828,401,46,380
-37,1201,3925,342,38,398
0,1322,3895,270,56,433
0,1322,3895,270,56,433
77,1497,3884,180,74,454
71,1895,3963,124,92,440
20,2053,3800,122,120,343
-53,1676,3499,88,104,234
-97,1333,3524,-4,34,216
-31,1337,3820,-68,-28,256
85,1493,4163,-32,-42,254
128,1650,4257,17,7,215
47,1796,4096,62,73,159
-56,1787,3861,62,108,93
-197,1494,3662,42,101,37
-305,1201,3512,-24,69,53
-298,1212,3417,-95,15,108
-251,1201,3396,-123,-43,110
-175,1071,3461,-140,-92,84
-123,945,3365,-138,-118,61
-78,802,3244,-157,-150,55
-13,726,3246,-181,-184,67
-25,678,3147,-218,-197,75
-32,518,2959,-248,-217,55
-49,98,2874,-253,-265,41
-44,-61,2965,-294,-310,105
8,377,3154,-337,-340,180
102,773,3244,-268,-355,153
103,632,3041,-232,-363,78
46,237,2949,-351,-410,93
24,98,3147,-422,-481,165
62,55,3343,-341,-521,187
60,18,3256,-169,-528,156
67,-69,3112,-109,-536,141
187,-375,3182,-154,-565,157
229,-361,3599,-264,-593,258
232,421,4045,-277,-572,368
213,965,4139,-163,-498,316
61,761,3401,-27,-468,195
-16,558,3410,-115,-576,185
38,616,4030,-242,-666,230
47,667,4287,-266,-662,235
47,722,4247,-169,-654,192
357,549,4322,-106,-670,138
547,313,4783,-150,-676,152
531,488,4916,-212,-607,238
477,567,4640,-224,-552,254
464,358,4642,-234,-572,231
618,357,4942,-202,-588,223
776,527,5155,-86,-558,183
845,699,5222,-21,-491,132
937,747,5302,10,-416,84
857,560,5260,58,-339,24
696,438,5106,61,-278,35
638,690,5000,39,-254,92
656,948,4840,45,-254,98
741,872,4747,32,-279,70
870,752,4867,-13,-306,65
1011,777,5132,-37,-298,61
1121,749,5220,14,-226,15
1194,691,5126,70,-133,-20
1291,690,5040,62,-44,-17
1253,820,4993,-19,43,25
1158,1046,4891,-88,116,59
1039,1311,4763,-145,161,65
954,1369,4668,-195,177,25
884,1227,4665,-226,177,-27
848,1176,4694,-247,177,-55
811,1308,4759,-252,195,-74
782,1415,4657,-230,236,-125
842,1384,4585,-221,263,-194
868,1258,4562,-223,296,-258
788,1111,4352,-253,349,-290
788,1111,4352,-253,349,-290
704,1181,4096,-306,377,-282
664,1301,3909,-372,369,-295
602,1179,3927,-421,338,-334
566,1150,4011,-438,324,-346
533,1255,3959,-423,339,-377
394,1266,3668,-412,353,-437
288,1181,3391,-451,332,-496
292,1002,3270,-490,280,-557
314,806,3323,-518,227,-601
300,798,3449,-540,197,-611
313,869,3433,-536,185,-630
317,918,3407,-511,171,-678
315,915,3320,-487,154,-742
301,755,3076,-458,128,-823
333,501,2813,-471,62,-878
460,228,2846,-547,-34,-886
517,15,3126,-583,-110,-876
469,-115,3203,-607,-120,-847
354,-104,2939,-644,-111,-807
209,-64,2671,-707,-153,-802
220,-273,2673,-693,-262,-866
334,-541,3034,-668,-368,-924
351,-656,3128,-594,-411,-950
340,-727,2970,-551,-432,-948
590,-872,2992,-542,-489,-945
896,-1200,3296,-556,-544,-923
990,-1322,3582,-608,-541,-820
816,-1004,3403,-673,-487,-680
694,-733,3231,-706,-487,-632
679,-834,3081,-664,-531,-693
649,-1153,2853,-661,-603,-732
621,-1366,2693,-697,-714,-706
784,-1555,2871,-740,-835,-668
976,-1812,3243,-707,-916,-638
1108,-2001,3459,-640,-931,-565
1181,-2026,3650,-580,-908,-453
1245,-1943,3856,-471,-858,-369
1353,-1872,3840,-352,-775,-300
1344,-1642,3834,-298,-704,-219
1182,-1401,3733,-235,-648,-182
1018,-1186,3446,-203,-629,-180
982,-1119,3333,-210,-678,-199
1056,-1311,3443,-239,-765,-228
1153,-1568,3635,-290,-839,-207
1219,-1804,3724,-319,-876,-137
1176,-1907,3735,-317,-890,-39
1135,-1656,3593,-301,-901,62
1292,-1490,3721,-246,-947,76
1545,-1626,4355,-128,-961,33
1677,-1579,4635,11,-870,48
1682,-1563,4400,86,-748,109
1628,-1503,4303,54,-679,190
1433,-1903,3890,118,-671,242
1361,-2121,3635,189,-741,367
1412,-2126,3688,236,-807,475
1496,-1971,4159,329,-838,531
1738,-1405,4679,446,-806,571
2026,-1009,4991,544,-700,529
1992,-1271,4844,570,-557,466
1842,-1673,4419,551,-460,500
1865,-2005,4139,545,-447,599
1883,-2035,4420,587,-469,726
1989,-1405,5011,705,-439,836
2165,-830,5124,849,-324,824
2362,-870,4812,916,-218,747
2563,-1151,4776,899,-174,745
2725,-1053,5117,890,-129,837
2750,-792,5359,941,-5,894
2635,-673,5383,1026,167,910
2635,-673,5383,1026,167,910
2462,-448,5024,1093,338,929
2174,-171,4467,1061,439,945
2066,297,4822,917,485,952
1816,426,4173,1008,494,849
1938,296,4816,1032,394,782
2179,125,5279,999,447,798
2247,312,5167,976,542,880
2293,560,5049,896,634,959
2223,591,4976,830,720,970
2071,673,4974,765,818,963
1898,854,4661,742,930,945
1597,1404,3741,671,987,951
1384,1997,2979,407,891,875
1350,1406,3503,253,676,639
1421,798,4087,451,552,489
1487,884,4122,461,604,517
1431,1266,3544,386,690,542
1385,1483,3044,230,694,496
1359,1350,3020,39,631,415
1362,1008,3201,-73,583,358
1258,668,3097,-137,589,348
1080,659,2747,-146,592,387
858,943,2068,-87,541,386
776,911,1796,-95,382,282


18,430,3992,92,177,925
-52,635,3961,65,138,860
-141,333,3987,49,102,752
-259,160,3960,53,73,715
-216,433,4022,100,46,710
-7,421,4019,221,25,629
134,142,4116,253,14,592
134,142,4116,253,14,592
251,-55,4197,185,45,660
252,-16,4235,109,104,773
102,427,4124,134,160,826
-69,752,3887,153,190,793
-199,858,3691,146,173,723
-273,944,3611,118,116,666
-244,928,3805,131,41,586
-224,767,3930,207,6,482
-138,696,3836,251,-2,436
3,575,3835,243,-20,420
-42,473,3927,208,-32,444
-141,645,3897,159,-21,515
-92,648,3743,122,-19,534
-96,523,3755,93,-41,534
-141,910,3861,45,-42,580
-122,1307,3787,43,-33,547
-89,1148,3752,59,-60,440
-53,821,3783,35,-100,393
-38,596,3776,-54,-122,425
-80,447,3724,-163,-142,481
-38,427,3829,-181,-174,497
41,446,4020,-175,-183,473
154,485,4133,-154,-156,445
265,480,4146,-125,-114,419
175,674,4218,-103,-75,418
112,1048,4161,-52,-35,396
14,992,3931,-12,-16,307
-102,849,3910,-9,-40,253
-96,1075,4022,-11,-67,241
57,1107,4194,-11,-77,187
31,695,4295,-33,-70,143
-88,543,4262,-83,-40,186
-89,729,4147,-47,-17,193
-44,886,4114,-4,-13,146
-59,972,4133,-19,-8,105
-132,839,4012,-59,-5,70
-274,582,3888,-101,-24,59
-279,590,3789,-128,-64,75
-99,506,3979,-143,-113,60
59,497,4291,-54,-133,38
104,593,4255,4,-88,22
95,608,4082,54,-49,-21
78,407,3969,67,-44,-56
41,236,3929,-18,-47,-12
31,326,3847,-87,-61,53
99,435,3810,-125,-91,85
197,374,3892,-157,-118,86
213,467,3898,-147,-115,86
204,508,3739,-101,-98,49
183,422,3589,-77,-94,-5
130,215,3423,-35,-109,-54
129,-6,3364,15,-141,-57
207,48,3360,-19,-160,-8
215,180,3350,-96,-165,37
112,82,3135,-158,-167,50
-17,-174,2939,-213,-209,75
-3,-258,3023,-284,-286,131
25,-166,3204,-338,-341,179
44,-64,3231,-279,-368,172
-26,61,3067,-238,-395,158
20,261,3177,-266,-444,146
141,321,3339,-234,-481,77
269,46,3521,-218,-500,36
436,-61,3722,-201,-505,82
409,-70,3797,-255,-484,168
326,-13,3833,-243,-467,213
248,167,3737,-145,-455,196
130,304,3526,-125,-454,146
35,184,3448,-120,-498,80
35,184,3448,-120,-498,80
48,97,3548,-122,-566,48
144,113,3828,-127,-627,49
401,1,4223,-118,-646,44
444,-109,4420,-49,-614,39
372,-112,4225,-56,-561,81
435,-27,4088,-109,-558,118
473,139,4252,-188,-587,130
548,34,4366,-181,-600,108
644,-179,4351,-172,-612,101
788,-201,4591,-207,-624,141
841,-16,4863,-174,-599,165
795,297,4905,-149,-527,154
666,465,4742,-74,-467,81
563,276,4368,-47,-460,8
681,-80,4252,-117,-522,0
882,-236,4534,-216,-589,63
1141,-72,5064,-241,-579,126
1232,152,5306,-115,-484,103
1233,260,5125,-69,-362,66
1244,155,4951,-97,-286,36
1119,-63,4906,-176,-253,42
1058,-156,4975,-237,-232,90
1051,18,5113,-163,-214,104
1051,436,5207,-100,-163,83
1017,757,5062,-92,-97,16
996,566,4865,-96,-79,-92
1033,97,4828,-103,-93,-136
1112,95,4954,-133,-88,-86
1157,452,4979,-124,-43,-51
1240,704,4877,-103,10,-90
1311,550,4798,-130,65,-155
1270,322,4747,-172,114,-159
1214,510,4621,-186,161,-119
1153,797,4449,-193,198,-127
1091,873,4233,-222,220,-186
1025,747,4143,-277,214,-243
946,540,4037,-313,207,-266
914,497,3932,-331,197,-263
956,583,3922,-319,185,-273
956,560,3939,-317,197,-312
798,604,3987,-294,230,-354
646,758,3819,-239,270,-406
585,741,3659,-207,265,-476
598,616,3762,-220,231,-532
567,598,3857,-270,220,-550
541,651,3855,-301,213,-556
579,671,3795,-298,189,-582
601,518,3707,-281,151,-619
605,325,3548,-392,129,-615
593,181,3498,-464,85,-615
697,-8,3584,-473,36,-635
815,-233,3782,-468,19,-647
871,-222,3996,-412,40,-641
865,-17,3861,-286,87,-675
795,-92,3611,-309,126,-726
799,-364,3593,-318,109,-773
780,-575,3665,-314,82,-768
725,-627,3568,-331,70,-721
714,-558,3460,-330,43,-695
741,-425,3460,-357,-1,-699
824,-384,3575,-395,-50,-736
908,-659,3652,-397,-74,-790
939,-1028,3624,-403,-79,-796
885,-1141,3655,-422,-81,-737
876,-828,3498,-427,-83,-677
925,-1101,3617,-328,-121,-724
968,-1214,3584,-208,-130,-730
879,-916,3093,-396,-111,-662
835,-869,2874,-635,-175,-650
835,-869,2874,-635,-175,-650
836,-1056,3108,-765,-274,-685
848,-1223,3120,-757,-329,-727
922,-1519,3052,-662,-399,-773
1012,-1686,3085,-597,-464,-751
1059,-1722,3078,-572,-506,-672
1063,-1537,2961,-565,-540,-588
1015,-1415,2771,-592,-583,-550
964,-1394,2806,-597,-667,-526
1056,-1241,3034,-594,-755,-489
1056,-1019,2956,-607,-795,-483
1093,-1161,2709,-615,-845,-555
1174,-1597,2885,-590,-951,-630
1289,-1866,3216,-597,-1011,-610
1408,-1946,3503,-571,-1004,-539
1408,-1881,3644,-503,-965,-448
1318,-1732,3403,-451,-909,-364
1328,-1868,3049,-387,-903,-338
1356,-2245,3110,-328,-962,-311
1432,-2476,3386,-220,-996,-234
1571,-2413,3615,-67,-958,-127
1720,-2113,3886,115,-898,-34
1780,-1601,3947,249,-817,34
1791,-1296,3757,256,-730,61
1688,-1580,3450,247,-741,60
1694,-1734,3765,224,-842,131
1776,-1783,4152,224,-870,219
1752,-1908,4076,282,-824,280
1775,-2045,3927,346,-786,341
1907,-2106,3803,418,-759,413
2072,-1966,3891,499,-743,487
2262,-1723,4208,556,-706,542
2422,-1690,4429,591,-613,582
2353,-1520,4443,701,-509,620
2275,-1322,4159,731,-415,657
2259,-1402,4011,748,-394,669
2218,-1387,3999,727,-405,718
2336,-981,4396,703,-426,772
2424,-762,3999,740,-355,698
2427,-1141,3792,836,-469,604
2813,-1519,5215,863,-499,659
2956,-1530,5190,950,-264,775
3019,-1295,4621,1026,-63,899
3060,-890,4935,1035,41,1017
2955,-432,5464,1050,194,1090
2837,-246,5388,1118,415,1074
2512,-128,4807,1172,593,1047
2228,248,4237,1120,645,1056
2071,238,3998,1030,579,999
1891,21,3991,909,486,968
1953,-82,4364,817,408,980
2105,-136,4734,821,400,996
2134,262,4950,831,448,1058


153,-1418,4045,-141,-68,403
295,-954,4315,-62,-93,480
349,-615,4505,85,-61,438
293,-556,4453,158,12,381
183,-694,4277,192,70,349
9,-878,4063,216,86,355
-104,-959,3971,245,55,395
-12,-1079,4045,264,18,435
117,-1283,4149,275,-1,506
113,-970,4183,233,3,659
49,-450,3957,124,18,775
66,-336,4012,63,-19,756
96,-281,4253,152,-57,683
188,-192,4306,204,-40,630
240,-309,4276,230,-11,585
197,-378,4301,248,10,580
112,-255,4233,246,42,610
-8,-176,4254,227,71,625
-87,-209,4057,327,92,612
-23,-99,3932,440,73,594
42,-23,3994,467,53,571
7,15,3923,405,63,583
-55,2,3730,356,59,598
-98,2,3804,266,22,624
-33,160,4065,207,-4,653
92,396,4184,223,10,641
183,453,4259,247,47,580
100,326,4189,221,95,540
-64,314,4000,187,121,551
-110,114,3796,163,105,554
-153,-132,3856,186,53,549
-186,154,3916,226,25,591
-94,602,3877,177,16,618
-6,754,3951,175,-11,560
-31,824,4085,165,-33,512
31,900,4020,125,-32,496
181,630,4026,106,-43,466
228,552,4251,59,-35,493
104,952,4273,-9,24,548
-70,1094,3913,9,70,492
-205,748,3696,39,41,391
-233,585,3734,7,-13,361
-144,608,3913,14,-60,355
-49,803,4004,42,-67,340
-29,822,4029,9,-49,308
-44,777,4027,-2,-36,273
39,662,4075,14,-27,243
83,673,4190,0,-5,260
62,891,4123,-63,43,291
62,891,4123,-63,43,291
-125,934,3915,-87,67,249
-245,998,3739,-105,41,199
-207,905,3747,-141,-14,134
-130,740,3834,-99,-77,68
-70,590,3912,-169,-104,70
-47,482,4005,-238,-106,98
-51,569,3925,-191,-89,96
49,515,3713,-135,-79,40
81,172,3704,-146,-88,9
-23,142,3760,-196,-71,61
-120,444,3404,-169,-50,76
-186,382,2979,-155,-91,14
-145,186,3099,-192,-189,-24
-56,184,3274,-216,-243,-31
-107,149,3075,-249,-262,-32
-162,80,2851,-349,-319,-6
-80,126,2928,-470,-410,25
145,-51,3179,-544,-481,24
301,-399,3379,-495,-507,17
349,-486,3353,-416,-488,75
336,-443,3272,-352,-463,134
313,-413,3221,-260,-452,144
279,-399,3208,-177,-459,127
284,-247,3397,-183,-479,131
365,-232,3665,-212,-482,128
247,-223,3806,-135,-470,97
95,-213,3919,-68,-454,81
0,-67,3766,21,-449,67
35,-284,3729,7,-495,52
123,-483,4042,-29,-571,99
247,-301,4246,-90,-598,217
316,-33,4309,-123,-601,268
312,212,4505,-132,-596,241
371,235,4559,-41,-577,140
423,33,4429,0,-572,67
536,13,4571,-54,-598,73
701,199,5103,-104,-602,86
780,351,5421,-52,-524,38
686,216,5305,66,-420,-44
632,33,5199,107,-350,-68
613,-15,5130,97,-308,-42
633,168,5185,66,-288,10
719,559,5314,40,-255,38
800,705,5288,35,-199,-15
867,625,5154,24,-149,-88
1040,470,5208,-9,-120,-122
1128,452,5391,-49,-69,-107
1082,663,5135,-120,18,-61
1036,658,4916,-170,60,-83
999,536,5054,-181,83,-122
879,734,5049,-217,141,-131
779,958,4816,-234,190,-166
783,936,4691,-263,196,-239
763,647,4664,-303,189,-296
700,393,4508,-366,202,-281
630,451,4345,-403,208,-250
627,675,4222,-404,209,-278
577,628,3995,-413,213,-358
573,275,3924,-404,197,-438
566,1,3856,-410,187,-449
537,31,3636,-474,182,-399
585,155,3632,-561,160,-375
521,147,3674,-572,154,-420
400,54,3415,-561,161,-475
356,64,3208,-562,124,-512
423,69,3349,-583,58,-551
562,-111,3530,-545,29,-612
506,-290,3401,-501,42,-641
478,-215,3137,-549,39,-622
452,-194,3213,-601,-5,-642
452,-194,3213,-601,-5,-642
479,-81,3588,-615,-38,-664
599,96,3640,-596,-16,-713
590,-3,3356,-608,4,-790
459,-335,3195,-669,-28,-839
370,-732,3015,-684,-87,-864
353,-773,3121,-703,-181,-845
456,-766,3424,-772,-241,-818
588,-974,3374,-762,-253,-825
679,-1327,3119,-786,-279,-798
746,-1419,3301,-834,-335,-704
794,-1176,3598,-777,-347,-639
667,-1043,3282,-669,-297,-663
488,-996,2725,-667,-304,-696
467,-1058,2581,-689,-420,-748
570,-1316,2784,-695,-551,-803
787,-1626,2985,-686,-633,-815
938,-2016,3089,-681,-664,-776
969,-2203,3182,-646,-675,-674
1016,-2006,3222,-587,-660,-553
1059,-1844,3288,-486,-639,-507
1080,-1757,3341,-381,-616,-507
1145,-1831,3422,-296,-605,-523
1133,-1987,3369,-261,-602,-498
1111,-1902,3406,-317,-621,-401
1123,-1748,3556,-343,-654,-338
1074,-1614,3537,-331,-666,-326
1089,-1624,3369,-309,-688,-345
1233,-1884,3311,-265,-742,-370
1333,-2079,3482,-233,-785,-333
1372,-2070,3659,-217,-779,-243
1402,-2026,3667,-159,-750,-168
1375,-2208,3562,-78,-705,-149
1369,-2583,3403,63,-715,-98
1504,-2460,3759,107,-741,36
1422,-2193,3879,110,-699,135
1270,-2162,3523,147,-674,152
1281,-2281,3350,184,-727,140
1445,-2537,3634,229,-798,128
1719,-2698,4008,329,-810,147
1958,-2546,4340,445,-749,197
2178,-2226,4637,573,-642,229
2223,-2016,4734,680,-504,234
2101,-1973,4522,732,-388,252
1951,-2025,4283,750,-340,299
1868,-1934,4405,749,-346,377
1853,-1788,4545,772,-341,446
1732,-1619,4365,805,-313,501
1726,-1373,4175,825,-310,523
1758,-1532,3908,902,-362,490
1999,-1551,4247,879,-417,523
2235,-1545,4557,846,-369,586
2411,-1272,4793,883,-268,654
2627,-875,4816,954,-128,675
2587,-634,4578,941,3,671
2440,-448,4351,826,68,685
2278,-478,4436,709,79,681
2139,-630,4534,668,92,673
1926,-699,4467,669,123,692
1831,-615,4454,663,143,742
1844,-445,4623,690,169,767
1740,-260,4599,729,226,776
1725,-123,4348,735,281,779
1682,47,4220,719,300,751
1672,151,4526,690,326,714
1646,175,4209,662,397,675
1529,-98,4369,670,412,642
1453,146,4024,652,480,730
1596,750,3787,577,448,733
1697,683,4174,498,368,577
1697,683,4174,498,368,577
1613,241,4372,328,379,518
1502,283,4137,274,397,539
1505,410,4136,127,385,567
1649,317,4313,125,376,541
1734,85,4332,254,420,492
1605,-97,4122,293,511,495
1360,29,3669,305,587,531
1074,495,3088,322,591,538
999,781,2991,328,493,435


325,-818,4215,354,-2,550
-11,-465,3926,380,67,499
-87,-352,3909,276,48,559
-27,-199,4052,219,15,603
56,-153,4365,222,7,597
2,-148,4372,267,51,576
-138,-69,4137,313,93,565
-285,-120,3821,356,93,529
-375,-213,3724,376,35,509
-352,-85,3851,361,-32,525
-160,15,4008,308,-63,540
12,2,4016,269,-64,560
36,-17,4248,229,-59,606
56,59,4165,261,-12,664
106,577,4048,220,8,731
78,897,3973,167,14,713
-49,719,3757,134,0,638
-70,569,3797,89,-57,605
-2,416,3929,102,-104,560
60,25,3974,141,-122,513
236,-98,4224,145,-116,536
347,251,4497,178,-54,566
347,251,4497,178,-54,566
280,705,4368,255,46,531
166,725,3993,274,109,452
70,375,3923,223,98,416
-99,256,3963,125,78,483
-233,339,3741,21,64,569
-323,422,3659,-9,4,600
-205,538,3756,22,-72,587
40,534,3887,32,-113,562
167,495,3917,71,-135,533
190,466,3973,83,-139,512
186,581,4118,43,-121,512
165,771,4141,34,-81,489
146,770,4100,65,-50,420
81,665,4133,83,-30,366
27,852,4193,43,-5,380
26,1125,4165,59,17,358
-7,1155,4025,118,17,292
-58,1076,3860,144,2,244
-79,1045,3761,173,-39,196
40,1207,3964,165,-89,163
224,1313,4239,143,-89,118
263,1241,4267,112,-50,73
209,1329,4287,51,-13,87
122,1442,4135,3,15,85
10,1205,3967,-14,4,44
51,1122,4064,-53,-23,61
121,1238,4107,-101,-17,84
77,1146,3978,-120,2,47
-6,927,3778,-111,7,0
19,725,3587,-133,-11,-11
166,524,3596,-171,-42,0
144,390,3707,-186,-50,32
0,562,3500,-208,-19,79
-58,699,3097,-189,-25,53
-57,483,2868,-157,-99,-18
0,322,2884,-211,-181,-33
69,319,2797,-301,-239,-12
165,141,2750,-368,-308,-17
253,-158,2878,-424,-373,-1
227,-263,2925,-493,-406,57
119,-336,2867,-510,-438,91
40,-502,2941,-488,-483,94
123,-456,3251,-394,-521,92
207,-71,3444,-269,-507,84
150,267,3248,-202,-479,51
192,273,3324,-203,-507,19
246,166,3582,-225,-530,27
241,60,3684,-252,-518,80
277,64,3727,-213,-518,134
248,224,3878,-189,-523,154
151,226,3603,-140,-520,130
159,166,3353,-192,-587,123
354,15,3705,-261,-695,114
490,-339,3986,-303,-727,118
601,-459,4282,-289,-710,141
726,-317,4710,-205,-651,156
752,-66,4821,-40,-548,134
609,49,4449,36,-448,99
418,-46,3954,-15,-440,84
428,-160,4076,-130,-528,115
645,-35,4615,-266,-589,175
741,116,4942,-270,-572,187
641,282,4684,-242,-526,173
599,52,4558,-323,-529,145
623,-243,4766,-294,-560,126
799,-193,4866,-224,-555,148
964,-147,5089,-176,-516,144
956,114,5323,-89,-441,121
956,114,5323,-89,-441,121
960,322,5297,-59,-338,76
975,221,5287,-31,-256,-1
890,134,5272,-26,-194,-21
851,415,5116,-36,-159,0
912,458,4988,-38,-161,-32
980,265,4945,-100,-174,-55
1110,151,5103,-159,-185,-44
1285,153,5390,-142,-149,-29
1319,288,5334,-111,-53,-16
1227,408,5145,-114,26,-12
1221,377,5036,-111,75,-26
1126,319,4877,-140,119,-27
1015,524,4543,-217,147,0
978,650,4353,-302,130,-30
986,356,4426,-309,101,-109
988,244,4345,-309,110,-128
975,411,4270,-327,124,-127
990,499,4289,-340,137,-154
1057,593,4433,-365,152,-181
1146,729,4763,-382,204,-221
1083,726,4684,-329,313,-291
877,648,4191,-315,400,-334
724,519,3763,-343,402,-354
654,358,3641,-402,338,-368
648,298,3757,-442,273,-364
671,355,3678,-464,248,-367
622,342,3561,-482,222,-403
632,266,3567,-489,193,-456
750,97,3554,-482,185,-512
806,-102,3542,-497,193,-545
724,-186,3560,-561,209,-525
661,11,3683,-604,222,-492
620,208,3501,-580,244,-522
497,-27,3119,-609,227,-585
424,-331,2906,-657,141,-603
465,-424,3000,-709,30,-600
562,-462,3352,-688,-45,-619
644,-353,3555,-636,-41,-666
648,-353,3411,-552,-9,-749
690,-587,3309,-495,-11,-814
742,-700,3269,-413,-39,-826
710,-659,2999,-442,-65,-791
733,-803,2914,-515,-126,-773
733,-869,3058,-534,-203,-767
722,-886,3058,-516,-246,-776
654,-892,2891,-542,-283,-789
668,-1015,2813,-566,-355,-814
775,-1255,2894,-562,-441,-834
905,-1505,2963,-574,-499,-811
935,-1676,3083,-588,-531,-751
1021,-1855,3333,-508,-533,-717
1062,-2115,3459,-369,-488,-680
942,-1895,3376,-275,-421,-560
898,-1449,3030,-244,-384,-464
843,-1331,2861,-235,-438,-468
844,-1388,3047,-259,-538,-481
960,-1448,3380,-282,-611,-463
1011,-1453,3492,-271,-632,-440
1066,-1470,3448,-255,-641,-417
1097,-1544,3437,-220,-659,-406
1058,-1535,3289,-233,-683,-365
996,-1391,3116,-316,-734,-315
1070,-1468,3141,-387,-822,-320
1230,-1789,3285,-390,-898,-353
1267,-2203,3283,-332,-940,-348
1388,-2398,3336,-287,-966,-291
1427,-2873,3163,-174,-973,-217
1436,-2845,3196,-52,-1027,-45
1688,-2350,3820,44,-1064,80
1688,-2350,3820,44,-1064,80
1887,-2082,4348,199,-993,80
1928,-2080,4224,339,-856,60
1802,-2212,4064,420,-772,75
1746,-2299,3970,470,-732,148
1679,-2329,3740,487,-711,257
1662,-2177,3668,521,-733,345
1777,-1937,3823,597,-770,376
1946,-1714,4046,677,-773,357
2094,-1571,4394,728,-744,321
2221,-1674,4110,800,-669,287
2258,-1847,3830,835,-703,328
2398,-1768,4386,780,-733,448
2539,-1643,4675,778,-650,547
2606,-1477,4855,859,-528,603
2578,-1236,4696,949,-390,637
2573,-1072,4439,959,-290,661
2611,-1043,4543,930,-250,680
2642,-1001,4835,927,-198,706
2558,-1015,4987,949,-97,739
2363,-931,4944,985,17,792
2206,-643,4916,1025,110,835
2094,-401,4875,1033,181,853
2046,-378,4862,996,219,868
2132,-312,5182,981,235,907
2329,-285,5433,1013,310,933
2431,-385,5414,1081,441,959
2444,-200,5603,1135,580,1030
2440,158,5791,1159,771,1092
2391,471,5516,1224,993,1090
2331,841,4943,1304,1146,1057
2220,1228,4213,1285,1207,978
2000,1441,3446,1062,1149,885
1777,1419,3194,745,976,781
1650,1092,3245,530,779,674
1652,869,3435,354,628,620
1688,997,3827,183,559,589
1673,991,4107,135,625,497
1591,633,3563,387,690,343


199,-1098,4193,365,-16,184
157,-1343,4218,494,7,231
81,-1499,4008,486,28,297
181,-1226,3955,526,4,387
138,-1016,4182,525,-14,439
81,-966,4280,566,7,448
-13,-799,4195,591,44,476
2,-540,3983,565,55,511
71,-524,4009,528,25,503
134,-519,4323,511,-3,500
125,-260,4304,496,26,530
19,-184,4024,458,48,530
-143,-320,3869,385,10,538
-178,-359,3884,277,-50,597
-39,-344,4065,195,-108,653
73,-221,4273,176,-129,680
118,-73,4374,195,-96,658
29,-92,4303,272,-42,564
3,-283,4517,438,6,473
32,-239,4236,583,84,445
-99,-25,3831,542,104,476
-79,122,3879,429,48,526
4,151,4147,321,4,585
79,259,4199,273,4,634
78,300,4084,206,11,652
-23,63,3998,177,0,640
-145,80,3964,140,-27,659
-131,497,4018,92,-57,668
11,791,4306,113,-83,603
155,717,4503,153,-54,504
162,394,4380,168,1,450
161,109,4205,159,32,479
139,105,4153,112,46,567
65,327,4080,91,60,630
-20,573,3900,108,61,623
-75,776,3782,74,30,581
70,854,3909,38,-18,509
211,606,4154,40,-39,421
276,337,4366,69,-9,391
220,541,4395,121,56,420
100,937,4182,164,122,421
11,1056,3903,193,140,357
-74,1073,3937,149,111,311
-111,1296,4038,86,86,310
-112,1587,4014,45,74,290
-138,1541,3937,13,58,216
-161,1206,4032,31,34,118
-229,842,3983,57,38,75
-232,745,3844,59,46,97
-172,863,3856,65,39,106
-171,910,3911,69,46,81
-222,943,3823,74,67,54
-320,964,3617,70,75,27
-409,942,3469,61,42,0
-424,886,3283,27,-12,-22
-381,616,3150,-43,-89,-34
-228,431,3273,-124,-179,1
-78,457,3401,-184,-226,51
-76,314,3084,-239,-239,66
-31,106,2969,-300,-300,72
5,-157,3088,-321,-360,67
47,-363,3102,-285,-390,72
107,-339,3042,-254,-411,97
107,-339,3042,-254,-411,97
202,-144,3186,-243,-430,112
215,69,3297,-199,-424,87
190,253,3245,-172,-415,45
174,197,3165,-172,-434,2
159,13,3196,-239,-487,28
173,-2,3440,-313,-546,96
202,-52,3633,-319,-565,125
198,-234,3626,-245,-554,110
262,-329,3550,-79,-558,86
390,-277,3622,-30,-567,115
454,-105,3706,-74,-549,159
326,47,3635,-114,-528,164
269,178,3715,-194,-538,151
281,128,3777,-275,-566,120
302,-102,4129,-377,-608,124
298,-38,4294,-391,-617,141
281,-316,4268,-356,-612,130
288,-462,4110,-316,-623,168
497,-330,4052,-298,-666,217
714,-346,4305,-343,-709,236
845,-182,4637,-388,-704,250
900,-38,5002,-360,-648,225
828,72,5095,-227,-559,147
726,-17,5067,-130,-473,76
633,70,4900,-43,-413,45
551,166,4706,-27,-395,23
580,-52,4698,-62,-411,6
691,-228,4863,-93,-435,31
799,-123,5341,-135,-428,97
860,282,5624,-42,-350,106
791,359,5388,39,-232,38
634,154,4995,70,-165,-27
590,76,4857,30,-168,-21
714,250,5062,-91,-190,37
860,437,5330,-166,-175,62
899,397,5283,-127,-121,21
906,298,5214,-103,-73,-5
965,407,5299,-70,-25,-19
989,589,5205,-33,43,-49
1036,644,5060,-14,101,-98
1145,552,5000,-16,148,-138
1130,462,4857,-70,203,-136
1058,537,4651,-138,248,-105
990,737,4367,-171,269,-107
977,745,4211,-206,254,-162
973,534,4242,-233,230,-230
960,363,4232,-248,240,-255
918,360,4123,-258,266,-257
883,501,4109,-261,284,-268
883,629,4142,-251,311,-306
786,642,4069,-238,353,-367
630,501,3768,-220,389,-427
462,321,3396,-226,381,-458
373,408,3161,-288,315,-463
347,377,3292,-341,235,-497
413,306,3328,-368,184,-528
509,390,3371,-424,137,-553
606,348,3592,-463,110,-584
638,346,3615,-459,126,-617
558,352,3348,-442,148,-665
491,197,3180,-447,124,-728
485,-17,3248,-420,74,-790
512,-197,3217,-386,42,-836
539,-368,3188,-445,16,-832
613,-546,3186,-534,-17,-797
564,-659,3236,-602,-51,-752
421,-637,3161,-629,-75,-712
399,-639,3018,-584,-119,-724
359,-664,3040,-507,-185,-777
401,-776,3099,-540,-221,-793
401,-776,3099,-540,-221,-793
534,-925,3082,-522,-254,-806
541,-1133,3048,-491,-297,-802
480,-1318,2941,-499,-340,-755
479,-1423,2797,-499,-397,-703
538,-1473,2855,-419,-486,-679
564,-1535,2935,-322,-566,-665
602,-1615,3001,-317,-603,-620
615,-1445,3114,-281,-633,-574
727,-1240,3133,-224,-645,-571
886,-1268,3022,-208,-655,-592
1001,-1391,3186,-237,-699,-571
1043,-1356,3400,-280,-722,-509
979,-1435,3266,-331,-718,-461
928,-1671,3248,-314,-768,-440
1011,-1841,3549,-250,-828,-400
1112,-1765,3586,-218,-824,-319
1271,-1576,3465,-188,-822,-260
1327,-1592,3544,-177,-853,-232
1361,-1487,3771,-246,-868,-184
1345,-1570,3937,-245,-862,-177
1398,-1755,4108,-153,-823,-195
1338,-2307,3751,41,-808,-179
1404,-2215,3867,99,-859,-20
1472,-1751,4052,98,-867,109
1468,-1609,3858,99,-845,138
1514,-1760,3700,123,-870,112
1631,-1918,4069,162,-905,94
1749,-2023,4437,241,-873,104
1868,-1992,4706,364,-792,144
1943,-1812,4628,491,-677,194
1919,-1861,4234,536,-589,241
1810,-1845,4255,542,-571,308
1685,-1830,3836,664,-600,363
1871,-1510,4202,705,-700,438
2104,-1109,4802,697,-703,473
2259,-1011,4881,701,-602,456
2324,-1210,4637,708,-502,446
2353,-1465,4495,714,-448,487
2371,-1568,4536,743,-410,566
2378,-1353,4678,791,-353,654
2386,-1081,4748,848,-268,693
2373,-968,4793,905,-173,689
2397,-956,4877,957,-78,691
2390,-856,4944,1016,16,717
2316,-674,4853,1034,117,768
2308,-464,4691,994,198,831
2354,-301,4697,915,253,889
2248,95,4706,886,305,916
2082,495,4609,858,367,881
1978,494,4501,827,410,780
1956,109,4443,839,423,691
2002,-98,4566,832,436,708
2064,174,4805,764,487,802
2130,588,4923,679,588,875
2090,916,4845,731,690,831
1914,914,4555,743,778,740
1671,803,4283,676,824,688
1452,871,3881,624,823,677
1248,1113,3639,505,768,666
1204,1542,3606,324,688,623
1337,1328,3625,305,577,459
1516,842,3936,257,504,375
1681,739,4394,148,530,399
1694,627,4258,176,680,392
1500,542,3213,252,754,368


1505,472,3165,-11,706,418
36,-1067,4261,178,-161,206
92,-1459,4263,290,-196,202
130,-1454,4371,352,-196,257
177,-1384,4318,386,-162,318
199,-1442,4183,376,-130,384
196,-1386,4296,301,-122,493
163,-973,4478,245,-97,610
160,-552,4398,252,-52,654
111,-403,4240,247,-31,642
66,-438,4168,228,-37,628
49,-715,4119,249,-56,613
23,-897,4250,289,-77,622
64,-697,4410,345,-65,657
74,-283,4429,406,-24,674
-16,-5,4195,417,18,657
-47,-65,4066,424,15,614
-37,-229,4189,424,-10,586
-18,-236,4350,399,-4,613
54,80,4363,391,37,666
27,394,4160,346,90,681
-86,327,3830,269,101,649
-156,-7,4032,273,41,622
-110,-105,4009,367,21,653
24,294,3831,403,-7,709
168,523,3941,356,-46,712
236,478,4358,324,-44,682
263,692,4506,390,16,657
215,1014,4382,437,106,602
130,1153,4111,463,171,509
42,1122,3950,407,182,453
25,1236,4061,398,159,414
-59,1308,3968,407,161,363
-68,1177,3829,374,152,327
1,976,3785,329,124,320
54,860,3841,244,100,366
129,980,3913,180,98,429
129,980,3913,180,98,429
91,1105,3867,120,121,452
9,1313,3813,85,135,432
-49,1567,3707,96,134,353
-106,1618,3668,82,118,242
-195,1356,3639,54,97,137
-326,1135,3646,14,60,107
-293,1275,3778,-17,25,137
-197,1446,3895,-17,16,130
-219,1311,3808,-40,31,100
-265,1099,3618,-64,27,92
-337,932,3405,-102,5,103
-332,783,3291,-163,-43,121
-249,742,3337,-173,-104,120
-238,778,3410,-182,-137,102
-267,715,3285,-184,-152,63
-192,551,3214,-164,-192,22
-140,411,3354,-159,-235,-3
-127,372,3514,-154,-245,-11
-148,382,3407,-100,-237,-28
-83,272,3213,-63,-249,-42
14,139,3089,-43,-300,-30
119,-12,2967,-96,-353,19
206,-190,2926,-181,-415,77
286,-315,3045,-234,-469,134
324,-294,3058,-216,-495,167
280,-185,3075,-200,-507,174
288,-56,3020,-105,-519,155
345,12,2858,-47,-546,125
300,-113,3007,-86,-597,104
210,-315,3233,-109,-627,116
109,-305,3259,-54,-626,149
18,-212,3142,-3,-643,155
70,-255,3194,36,-703,159
285,-204,3392,24,-768,203
474,97,3697,-80,-800,280
581,593,3972,-179,-798,328
549,717,3936,-224,-772,286
487,525,3883,-271,-779,225
566,210,4235,-318,-810,198
633,-85,4555,-304,-803,211
600,-73,4477,-307,-765,266
609,-81,4607,-396,-738,326
613,253,4730,-375,-725,329
692,438,4916,-354,-700,278
776,423,4957,-332,-665,207
862,291,4990,-374,-636,159
869,241,5219,-398,-612,143
905,464,5469,-431,-563,149
947,795,5656,-497,-478,113
1028,847,5893,-478,-399,5
1023,295,6084,-246,-319,-95
1029,123,5834,-59,-217,-69
972,234,5487,-76,-143,6
929,377,5333,-118,-136,53
952,516,5257,-122,-153,40
930,556,5173,-191,-158,8
957,583,5271,-270,-163,-15
1069,480,5416,-260,-138,-72
1137,179,5419,-178,-79,-127
1195,0,5339,-85,-8,-116
1253,6,5236,-26,73,-68
1178,91,5078,-19,156,-19
1078,276,4797,0,223,3
1118,452,4694,40,254,-16
1109,586,4727,65,283,-63
1156,753,4688,82,336,-118
1144,686,4444,90,397,-200
957,447,4141,38,425,-240
820,365,3972,-19,410,-227
820,365,3972,-19,410,-227
759,403,3858,-41,384,-215
674,521,3747,-67,354,-212
673,651,3716,-109,319,-224
712,554,3744,-136,295,-271
648,461,3880,-171,289,-290
622,590,3922,-160,315,-292
541,684,3689,-158,353,-337
359,630,3667,-145,334,-391
426,839,3711,-197,321,-404
433,863,3516,-280,306,-464
404,549,3504,-384,252,-513
461,298,3660,-463,203,-507
475,323,3758,-465,189,-483
492,532,3671,-460,204,-492
489,523,3520,-467,209,-556
456,392,3428,-481,188,-621
395,263,3345,-483,158,-663
341,106,3151,-471,117,-699
408,-20,3058,-469,42,-722
464,-350,3114,-535,-26,-732
463,-632,3318,-642,-64,-677
526,-406,3407,-633,-78,-602
557,-193,3312,-621,-82,-605
557,-270,3278,-596,-111,-670
556,-491,3276,-566,-150,-728
523,-646,3278,-542,-185,-746
519,-634,3151,-499,-215,-749
509,-731,2945,-482,-262,-774
414,-991,2774,-507,-333,-789
426,-1122,2769,-540,-417,-762
612,-1368,2891,-544,-493,-753
793,-1678,3001,-525,-546,-715
915,-1725,3166,-537,-570,-615
937,-1520,3206,-544,-566,-503
869,-1286,3205,-513,-564,-452
782,-1219,3252,-419,-586,-476
721,-1107,3121,-371,-603,-482
689,-1116,3122,-341,-655,-501
725,-1361,3153,-300,-733,-514
917,-1498,3301,-291,-818,-453
1213,-1525,3684,-325,-869,-362
1347,-1385,4042,-365,-845,-272
1251,-1090,3872,-408,-771,-205
1199,-1056,3643,-485,-738,-191
1212,-1198,3662,-494,-768,-219
1192,-1421,3550,-514,-790,-229
1241,-1670,3437,-549,-823,-211
1296,-1768,3500,-544,-873,-170
1303,-1659,3514,-562,-909,-134
1384,-1681,3742,-584,-950,-142
1508,-1948,4197,-514,-969,-171
1520,-2301,4195,-365,-924,-170
1479,-2500,3776,-265,-874,-78
1535,-2422,3757,-207,-883,38
1535,-2616,3766,-25,-898,99
1536,-2472,3669,157,-924,222
1735,-1814,4014,184,-944,350
1948,-1496,4497,233,-910,339
1941,-1472,4442,298,-819,304
1932,-1533,4106,247,-749,314
1963,-1869,4014,216,-738,323
1963,-2012,4138,303,-740,359
1968,-1842,4339,378,-697,419
2028,-1620,4340,454,-613,445
2075,-1607,4298,555,-547,427
2094,-1571,4393,614,-509,453
2146,-1327,4358,652,-463,499
2189,-1337,4264,682,-426,495
2212,-1517,4279,711,-411,503
2212,-1517,4279,711,-411,503
2346,-1400,4592,774,-393,561
2476,-887,4814,815,-313,633
2470,-641,4681,816,-204,643
2287,-778,4489,811,-128,628
2152,-692,4443,795,-90,665
2213,-427,4575,803,-68,686
2291,-192,4741,825,-15,672
2342,2,4620,807,68,650
2374,-169,4325,762,124,612
2404,-376,4337,700,123,625
2484,-269,4630,653,129,684
2596,-174,4768,675,206,694
2551,-271,4662,712,327,672
2418,-106,4682,729,433,680
2388,161,4654,737,538,678
2320,-8,4591,729,642,639
2111,-157,4612,623,762,683
1999,-77,4630,600,880,763
1857,200,4285,750,985,784
1720,409,3649,791,1030,776
1653,356,3466,754,964,734
1507,406,3501,702,885,713


400,-1482,4372,454,-281,128
214,-1405,4330,624,-88,243
78,-1393,4175,646,-68,296
27,-1105,4030,691,-80,345
89,-1012,3990,763,-121,330
288,-1098,4232,817,-165,326
440,-996,4501,791,-143,402
439,-517,4506,723,-62,517
439,-517,4506,723,-62,517
419,-124,4413,711,4,551
364,27,4310,711,41,549
248,62,4084,680,56,566
128,40,3868,614,36,598
0,-220,3762,529,-13,616
-147,-919,3860,429,-58,647
205,-301,4147,588,-105,717
481,276,4425,747,-74,668
683,391,4533,869,0,566
648,537,4563,786,104,572
528,925,4486,648,203,621
285,1152,4172,528,266,616
81,772,4154,443,260,586
48,450,3880,493,244,598
-45,116,3462,456,168,642
28,-136,3850,401,30,698
94,-100,4346,370,1,772
202,177,4316,406,64,810
363,627,4278,505,106,790
363,1037,4368,524,158,740
296,1168,4159,539,225,660
210,1153,4033,482,258,620
91,1216,4012,423,267,608
-25,1040,3745,372,276,596
-158,1009,3461,252,239,651
-165,1394,3494,161,150,708
0,1527,3797,217,63,622
108,1454,3884,256,38,528
214,1656,3942,258,46,485
384,1778,4021,276,74,405
366,1529,4047,293,118,320
184,1573,4017,279,168,323
31,1812,3792,257,213,330
-111,1957,3603,259,208,285
-192,2273,3568,226,172,258
-160,2490,3587,164,129,204
-188,2326,3655,101,89,119
-248,1829,3646,56,56,61
-260,1537,3654,-13,27,99
-198,1659,3687,-80,14,173
-149,1762,3666,-120,10,187
-211,1729,3629,-152,6,157
-284,1629,3657,-155,-8,95
-290,1392,3617,-112,-19,5
-280,1080,3524,-80,-34,-51
-295,911,3385,-93,-57,-45
-251,802,3264,-137,-95,-12
-119,676,3373,-175,-142,12
-54,713,3492,-169,-158,34
-39,769,3269,-141,-145,35
-104,533,2908,-142,-166,8
-176,224,2735,-195,-240,20
-173,-2,2733,-237,-337,56
-80,-216,2817,-212,-427,82
68,-187,2922,-170,-491,126
233,36,3046,-176,-524,181
322,279,3261,-195,-532,204
210,318,3102,-229,-519,201
183,266,2968,-301,-551,227
355,404,3442,-319,-625,259
407,569,3753,-292,-619,272
358,550,3723,-245,-574,261
274,363,3580,-180,-555,242
257,188,3505,-173,-564,255
288,295,3678,-113,-597,265
432,615,3984,-68,-612,259
482,681,4119,-74,-582,229
302,582,3997,-61,-555,202
219,502,3841,-126,-555,227
219,502,3841,-126,-555,227
180,593,3903,-175,-614,243
283,688,3996,-222,-676,260
450,705,4101,-504,-708,317
554,818,4751,-663,-728,349
641,874,4834,-622,-665,330
696,601,4753,-618,-605,304
679,627,5070,-549,-594,304
779,808,5209,-463,-540,290
902,675,5294,-423,-477,230
990,490,5508,-353,-419,185
1064,480,5655,-287,-331,179
1219,494,5488,-337,-214,201
1136,673,5770,-389,-142,234
1079,1276,5955,-270,-62,218
1046,1528,5654,-162,28,103
988,1356,5469,-147,57,-21
998,1073,5480,-150,64,-105
1099,850,5477,-171,93,-127
1204,744,5425,-172,145,-110
1206,680,5203,-176,214,-77
961,632,4793,-246,274,-35
857,510,4643,-412,300,22
960,989,4765,-278,276,10
721,996,4437,-263,316,-66
653,1087,4172,-270,316,-125
683,1128,4134,-297,286,-195
727,941,4169,-333,280,-270
694,751,4123,-321,291,-312
632,616,3943,-344,315,-299
525,683,3728,-349,319,-275
474,771,3435,-325,294,-286
531,728,3248,-328,230,-324
543,713,3403,-376,160,-363
547,727,3392,-362,136,-423
538,603,3208,-364,118,-499
602,500,3216,-363,79,-560
722,385,3385,-350,49,-610
736,453,3660,-332,54,-630
691,854,3592,-289,103,-648
541,938,3206,-400,142,-694
352,709,2937,-520,96,-749
269,456,2909,-582,-6,-793
222,200,2984,-657,-104,-809
181,6,3104,-699,-185,-797
192,-36,3057,-707,-243,-774
377,-23,3116,-725,-304,-759
557,-177,3291,-681,-352,-794
704,-449,3359,-653,-347,-802
822,-735,3344,-646,-324,-755
703,-874,3200,-679,-294,-664
462,-766,2941,-703,-289,-576
324,-596,2699,-689,-341,-554
272,-498,2662,-651,-442,-599
339,-365,2731,-574,-548,-676
422,-483,2635,-434,-662,-833
508,-1145,2656,-538,-761,-903
719,-1631,2997,-602,-864,-843
891,-1657,3476,-595,-913,-711
1002,-1393,3808,-572,-881,-579
1028,-1078,3734,-514,-796,-514
964,-927,3518,-454,-751,-514
979,-874,3334,-458,-766,-517
1085,-879,3391,-497,-822,-520
1268,-1116,3733,-492,-872,-546
1173,-1303,3743,-492,-863,-521
1032,-1245,3365,-594,-841,-439
1174,-1348,3136,-658,-906,-435
1265,-1770,3448,-701,-1011,-458
1296,-1901,3912,-728,-1057,-389
1296,-1901,3912,-728,-1057,-389
1431,-1985,4055,-615,-1028,-339
1521,-2187,3884,-469,-981,-301
1528,-2177,3872,-401,-963,-210
1648,-2073,3999,-294,-961,-148
1836,-2079,4521,-156,-917,-149
1778,-2333,4626,92,-829,-128
1763,-2165,4529,230,-731,2
1727,-1961,4459,290,-654,110
1607,-1972,4125,365,-614,180
1621,-2094,3640,371,-632,267
1783,-2342,3624,346,-721,353
1930,-2545,3920,379,-794,449
2124,-2274,4437,473,-798,559
2313,-1566,4864,614,-704,602
2368,-1140,4745,749,-547,532
2279,-1215,4301,806,-426,449
2252,-1659,3893,826,-390,429
2206,-2003,3834,843,-419,514
2237,-1648,4161,866,-442,685
2406,-862,4511,939,-405,795
2503,-331,4571,995,-317,776
2530,-225,4542,960,-242,721
2552,-351,4536,896,-189,691
2474,-614,4485,850,-130,685
2403,-773,4500,831,-70,718
2411,-642,4756,839,0,776
2414,-268,5041,853,109,827
2280,-43,4921,878,258,831
2104,-48,4470,812,363,845
2100,10,4549,751,376,881
1976,194,4689,827,384,874
1955,397,4573,820,437,869
2000,493,4298,772,480,842
2032,519,4741,615,508,816
1841,243,4520,596,578,764
1765,-46,4899,691,612,759
1787,-340,4815,876,728,809
1844,84,4368,1001,817,915
1819,843,4118,959,870,981
1778,1384,3856,878,883,933
1811,1670,3714,780,841,783
1739,1705,3565,645,790,613
1619,1634,3434,485,718,482
1568,1441,3517,356,625,376
1700,1110,3620,312,553,292
1712,783,3650,248,532,286
1569,751,3461,174,555,338
1551,783,3111,136,569,354
1519,632,2807,96,532,341
1445,641,2658,20,456,366
1389,817,2393,-77,382,384


211,-810,4347,691,-2,678
236,-505,4551,699,28,749
237,-153,4423,750,94,746
128,-108,4113,754,132,707
80,-180,4090,722,112,688
99,129,4375,667,87,723
211,776,4420,635,117,725
209,884,4414,656,145,607
43,446,4289,731,184,509
-170,320,3616,704,173,538
-230,393,3529,528,62,617
-133,341,3812,373,-37,679
94,299,4134,320,-81,732
235,535,4306,308,-64,774
221,822,4305,326,-9,750
189,1170,4363,385,44,659
189,1450,4367,469,102,517
119,1188,4073,511,146,359
85,649,4049,478,142,291
17,363,4063,406,142,352
-66,300,3910,348,144,456
-208,538,3704,318,133,523
-257,951,3587,325,93,521
-74,1196,3741,370,33,428
147,1098,4057,347,7,344
237,1026,4254,291,42,329
149,1131,4224,196,115,357
-12,1362,3988,160,164,361
-135,1480,3824,122,165,324
-181,1244,3767,112,130,247
-224,1017,3773,109,84,219
-213,1127,3812,102,46,235
-121,1313,3901,108,22,223
16,1344,3934,118,17,175
50,1235,4049,59,30,145
-50,1273,4120,28,65,138
-167,1386,3853,53,104,108
-289,1256,3533,42,92,59
-375,950,3476,-6,30,37
-410,846,3471,-52,-26,60
-341,830,3415,-107,-76,87
-219,678,3453,-137,-132,90
-131,502,3532,-166,-162,104
-102,573,3561,-164,-164,134
-92,782,3394,-115,-151,116
-120,681,3066,-82,-159,42
-103,382,3033,-72,-220,-9
-86,261,3013,-70,-272,-4
-42,278,2774,-86,-315,24
140,221,2813,-133,-390,53
140,221,2813,-133,-390,53
287,188,3019,-157,-450,90
354,307,3130,-185,-460,139
306,343,2992,-200,-446,164
217,192,2722,-219,-479,184
203,40,2732,-274,-562,225
266,3,2985,-319,-633,265
283,176,3443,-261,-670,253
280,563,3582,-131,-636,187
294,543,3456,-30,-588,69
232,164,3467,15,-582,6
108,120,3424,-65,-582,92
19,293,3400,-144,-603,194
43,444,3422,-192,-665,236
11,355,3591,-230,-731,239
38,302,3538,-251,-769,247
165,226,3611,-286,-826,245
314,-69,3999,-300,-878,238
426,-139,4118,-305,-877,272
638,215,4427,-279,-872,295
874,800,4787,-193,-835,238
1010,1099,5048,-225,-749,116
964,614,5208,-459,-620,42
814,-41,5064,-433,-545,31
624,-299,4921,-374,-515,109
556,89,4822,-300,-520,205
669,556,4849,-301,-538,226
754,684,5081,-321,-557,153
833,567,5247,-263,-551,57
946,404,5433,-212,-522,4
1138,369,5614,-177,-472,-7
1300,270,5750,-144,-398,-12
1302,215,5806,-115,-295,-1
1292,323,5653,-72,-199,12
1304,262,5546,-95,-130,22
1340,404,5613,-163,-79,60
1377,561,5748,-150,-21,80
1383,822,5652,-147,65,79
1386,880,5342,-121,134,0
1383,714,5198,-100,163,-86
1398,566,5166,-70,197,-137
1388,470,5078,-27,247,-165
1407,436,5007,-13,306,-162
1378,542,4888,-17,376,-131
1277,786,4715,-64,447,-99
1199,912,4479,-105,497,-112
1121,799,4315,-144,517,-155
1004,692,4227,-163,524,-180
879,752,4001,-197,537,-189
724,780,3742,-224,535,-224
610,794,3511,-275,485,-273
655,798,3693,-388,428,-307
673,725,3878,-473,426,-346
550,503,3624,-494,455,-385
351,347,3316,-529,444,-377
274,492,3184,-548,386,-364
351,627,3286,-512,321,-421
376,650,3464,-489,294,-502
363,657,3339,-458,296,-577
337,556,3109,-432,276,-652
218,460,2938,-471,226,-688
190,350,2903,-515,153,-717
240,57,2892,-516,76,-776
294,-145,2940,-535,7,-782
330,100,2984,-594,-46,-732
385,350,3052,-663,-97,-736
366,111,2991,-631,-155,-847
358,-569,2995,-706,-209,-887
474,-990,3132,-772,-254,-798
474,-990,3132,-772,-254,-798
471,-771,3181,-748,-276,-673
469,-371,3100,-693,-290,-631
552,-303,3062,-651,-319,-689
712,-669,3221,-580,-362,-774
778,-1145,3230,-553,-373,-782
633,-1307,3010,-597,-372,-685
528,-1141,2724,-615,-410,-598
602,-1172,2655,-548,-501,-618
683,-1320,2760,-442,-592,-679
763,-1458,2994,-402,-643,-699
812,-1367,3180,-356,-655,-682
925,-1203,3328,-313,-659,-659
1008,-1138,3335,-211,-677,-671
1044,-1412,3298,-299,-694,-627
935,-1536,3417,-435,-731,-496
841,-1122,3604,-493,-771,-367
929,-939,3634,-481,-784,-366
964,-1028,3511,-469,-792,-414
1018,-1092,3390,-511,-824,-421
1038,-1238,3422,-547,-884,-415
1170,-1507,3420,-553,-939,-394
1320,-1935,3658,-540,-982,-359
1353,-2094,3789,-471,-968,-273
1354,-1920,3674,-384,-916,-170
1378,-1727,3444,-278,-882,-135
1433,-1720,3519,-193,-877,-145
1537,-1963,3607,-114,-866,-172
1616,-2483,3661,-18,-860,-150
1783,-2465,4022,49,-857,-18
1807,-2393,4156,229,-819,80
1753,-2246,4149,355,-782,184
1765,-1985,4199,388,-748,276
1743,-1875,4143,387,-714,325
1838,-1811,4245,381,-714,369
1910,-1709,4573,431,-712,384
1896,-1723,4533,456,-657,401
1948,-1806,4358,479,-630,437
2059,-1828,4296,501,-634,490
2195,-1945,4269,535,-618,525
2207,-2062,4160,657,-636,574
2455,-1537,4782,704,-624,655
2526,-1154,5207,724,-474,652
2408,-867,5145,836,-281,600
2222,-939,4619,903,-125,543
2108,-1153,4348,912,-86,555
2088,-964,4358,922,-99,631
2078,-886,4244,896,-101,684
2069,-1050,4236,882,-114,722
2094,-846,4508,897,-114,792
2170,-426,4784,926,-50,824
2234,-114,4878,909,66,814
2270,84,4724,1005,177,737
2221,-92,4457,1045,255,650
2170,-164,4519,973,295,658
2120,40,4555,917,350,691
1984,31,4433,877,405,691
1891,-63,4339,802,429,719
1997,58,4445,789,443,769
2031,295,4425,854,475,769
1964,503,4101,826,522,761
1901,787,3847,740,520,741
1887,818,3879,652,479,665
1902,607,4057,533,463,612
1895,550,4139,539,474,587
1827,626,3990,559,506,583
1834,652,3837,525,538,583
1805,596,3732,503,564,571
1708,766,3821,473,589,578
1692,1126,3931,438,651,575
1638,1323,3563,453,735,497
1426,1321,2929,374,766,406
1426,1321,2929,374,766,406
1171,1210,2456,244,685,328
1058,1118,2318,60,534,272
1099,871,2665,-99,377,205
1112,541,3014,-158,295,162
1109,421,2944,-183,280,173
1062,441,2816,-217,239,196
975,553,2859,-244,166,199
1005,609,2955,-245,104,159


-196,-239,4169,400,-194,297
-264,-486,3881,415,-209,276
-89,-845,3934,377,-258,310
151,-908,4248,317,-279,406
428,-629,4658,297,-225,484
462,-467,4748,349,-90,477
219,-191,4481,420,42,453
5,45,4035,463,115,405
-168,-193,3754,450,98,353
-238,-343,3877,393,27,379
-220,-225,3962,326,-11,444
-174,-110,3961,294,-42,472
-155,-75,4023,299,-75,464
-169,-128,3956,328,-101,444
-136,-150,3937,310,-124,458
-6,-36,3999,256,-135,489
76,-18,4003,204,-127,496
76,71,4134,167,-122,517
66,128,4151,205,-88,528
61,311,3836,238,-86,538
55,408,3829,138,-128,552
55,408,3829,138,-128,552
127,-14,4035,78,-170,496
127,-14,4035,78,-170,496
176,-288,4218,157,-163,477
121,-156,4364,255,-112,493
133,321,4268,418,-46,472
195,559,4107,520,-3,398
208,511,4105,542,9,328
192,586,4098,510,29,309
253,656,3967,378,54,335
219,567,3988,242,48,365
65,533,3990,192,39,394
-22,938,3957,204,28,415
35,1344,3931,269,7,344
96,1370,3928,299,-21,239
234,1327,3982,253,-45,188
425,1252,4277,202,-47,164
484,1114,4394,153,13,156
380,981,4320,119,93,158
186,1082,4204,159,149,163
96,1339,3899,171,185,144
-12,1421,3733,125,172,86
-121,1449,3708,84,130,33
-187,1301,3511,37,85,-1
-272,1162,3437,-58,10,7
-233,1129,3480,-140,-65,27
-93,968,3633,-186,-119,25
32,660,3735,-198,-128,14
-33,438,3641,-210,-106,45
-149,545,3379,-199,-89,87
-158,448,3026,-166,-115,55
-92,-38,2972,-139,-188,6
-32,-285,3013,-113,-247,24
156,-171,2937,-60,-283,55
306,-91,3023,-34,-311,46
367,4,3176,-24,-312,27
391,33,3192,12,-297,9
301,70,3120,3,-295,29
219,147,3045,-24,-314,71
133,285,2807,-86,-346,110
121,140,2741,-136,-424,122
194,-63,3132,-156,-512,141
229,-384,3423,-135,-519,168
169,-407,3120,-102,-508,228
219,-72,3184,-123,-567,267
412,216,3708,-95,-611,222
602,199,3919,0,-580,133
607,81,4013,22,-538,95
494,68,4178,-15,-504,133
340,37,4129,-21,-482,173
188,76,4054,-66,-498,228
218,400,4116,-139,-536,280
300,541,4385,-154,-580,241
247,267,4595,-159,-586,180
182,123,4431,-171,-564,174
231,215,4306,-202,-586,188
377,341,4558,-270,-630,197
579,443,4764,-272,-633,172
678,391,4911,-302,-603,144
736,313,5048,-355,-567,145
756,273,5085,-386,-530,166
742,104,4911,-414,-492,179
703,34,4678,-513,-489,189
744,-42,5289,-427,-522,148
1009,340,5607,-252,-436,104
1119,466,5539,-162,-288,26
1062,270,5177,-132,-192,-16
1047,209,5152,-215,-182,17
1164,343,5626,-317,-178,74
1223,478,5705,-257,-110,60
1150,506,5452,-175,-38,11
1110,454,5374,-146,-2,-24
1110,454,5374,-146,-2,-24
1112,430,5438,-93,29,-55
1136,493,5408,-32,88,-77
1175,471,5230,5,154,-98
1139,504,5058,-16,208,-88
1091,775,4933,-67,259,-74
1120,770,4744,-99,303,-122
1105,622,4653,-127,333,-166
1092,666,4564,-147,362,-171
1003,682,4384,-171,398,-182
886,788,4253,-170,418,-204
765,809,4086,-170,435,-259
626,680,3820,-189,433,-311
511,599,3630,-236,394,-320
515,694,3598,-272,337,-332
551,516,3552,-271,300,-384
543,430,3372,-308,279,-417
616,427,3383,-349,246,-448
749,357,3530,-366,232,-484
703,381,3550,-391,250,-494
518,520,3400,-428,272,-496
436,543,3161,-436,251,-540
378,391,3152,-469,194,-601
338,285,3112,-539,146,-621
349,213,3071,-575,98,-644
344,113,3089,-593,50,-690
363,181,3173,-605,7,-730
519,260,3228,-584,-29,-791
563,-6,3189,-607,-62,-871
434,-477,3187,-673,-106,-890
463,-835,3226,-705,-144,-832
469,-999,3172,-680,-165,-751
384,-842,3078,-701,-186,-638
423,-475,3014,-720,-225,-571
447,-367,2965,-716,-279,-602
408,-652,2973,-698,-345,-674
413,-1046,2867,-675,-410,-711
444,-1273,2791,-648,-488,-701
581,-1335,2944,-632,-571,-655
744,-1192,3206,-567,-619,-626
744,-893,3261,-509,-616,-622
741,-738,3130,-449,-616,-681
810,-1094,3093,-403,-655,-778
886,-1579,3293,-415,-711,-782
825,-1891,3373,-436,-728,-680
826,-1887,3360,-447,-735,-529
960,-1648,3674,-423,-738,-418
936,-1246,3600,-311,-688,-392
883,-1123,3156,-252,-666,-428
959,-1447,2925,-265,-741,-468
1076,-1806,3233,-318,-850,-440
1188,-1843,3622,-362,-892,-344
1284,-1751,3717,-343,-866,-282
1279,-1786,3595,-284,-831,-263
1258,-1928,3476,-239,-831,-240
1269,-1970,3715,-202,-866,-183
1432,-1705,3953,-147,-876,-116
1608,-1709,3930,-100,-859,-105
1661,-2003,3834,-93,-855,-83
1721,-2238,3864,-84,-870,-18
1785,-2349,4125,-12,-870,59
1828,-2230,4283,131,-804,120
1852,-2048,4266,275,-705,145
1840,-1992,4220,390,-627,147
1736,-2032,4228,454,-581,165
1669,-2009,4187,496,-551,221
1615,-1994,3938,514,-540,292
1632,-2075,3737,532,-570,347
1687,-2263,3698,585,-622,392
1687,-2263,3698,585,-622,392
1811,-2213,3841,651,-661,467
2035,-1758,4225,724,-663,533
2275,-1345,4508,798,-606,536
2334,-1278,4581,826,-521,527
2313,-1154,4543,804,-443,570
2282,-1034,4425,777,-379,607
2243,-1147,4274,778,-343,616
2264,-1233,4395,793,-334,646
2339,-1036,4635,839,-298,696
2385,-729,4663,901,-224,712
2354,-671,4549,940,-148,689
2322,-697,4516,930,-89,686
2400,-716,4583,922,-28,695
2454,-788,4681,928,48,709
2377,-445,4999,932,143,759
2345,199,5183,971,275,757
2272,514,5093,991,407,678
2106,562,4830,917,490,617
2048,394,4719,748,505,629
2007,400,5070,665,496,657
1901,344,5007,626,565,681
1854,396,4250,617,653,710
1742,498,4014,645,532,716
2017,846,5230,612,487,769
2095,1158,4873,648,667,713
1838,1217,3992,688,775,581
1723,1184,3683,617,759,462
1732,817,3898,551,727,356
1592,504,3791,509,758,345
1391,438,3105,454,779,403
1242,368,2625,377,698,451
1177,487,2499,287,559,499
1291,764,2595,249,421,491
1464,881,2844,236,330,405
1538,935,2896,191,304,318
1496,923,2893,93,289,254
1378,824,2880,4,269,195


-4,-636,4098,352,-95,359
85,-494,4304,372,-80,376
51,-244,4256,392,-31,390
-112,-219,4012,401,0,378
-128,-107,3963,372,-21,393
81,1,4184,296,-52,421
147,-29,4447,205,-40,459
-38,29,4167,181,4,494
-140,104,3885,89,-5,530
-104,63,3948,-2,-63,534
-15,-129,4181,-18,-101,513
71,-229,4362,17,-96,505
232,-88,4519,88,-55,512
243,48,4438,149,13,509
74,148,4241,162,69,502
-59,164,4005,178,85,488
-119,52,3915,159,52,479
-153,85,4059,118,14,497
-151,255,4093,133,-4,495
-94,259,4321,231,-11,452
-39,264,4013,344,7,413
24,202,3924,312,-17,403
163,58,4345,246,-46,431
155,107,4494,227,7,493
92,393,4109,240,68,542
110,715,4017,177,71,555
61,856,4148,152,63,501
-35,696,3997,203,71,409
-78,486,3854,218,52,369
-6,654,3924,190,15,382
119,785,4117,204,0,334
194,698,4197,275,15,246
220,430,4191,292,47,200
57,129,4051,298,84,221
11,414,3928,254,89,326
63,1014,4133,213,77,381
79,1263,3997,239,91,322
39,1108,3835,212,77,263
53,1088,3872,104,45,275
90,1259,3959,-4,30,298
110,1297,3986,-31,31,260
80,1079,3990,-10,44,188
30,818,3974,12,59,150
-39,862,3859,25,77,169
-53,1071,3714,35,79,163
-65,973,3781,55,55,104
-79,947,3902,54,51,75
-124,1096,3802,49,67,58
-192,1063,3699,53,58,19
-247,897,3643,58,30,-19
-320,747,3524,37,1,-26
-324,636,3495,2,-48,-20
-300,566,3490,-34,-93,-1
-209,584,3403,-80,-129,23
-209,584,3403,-80,-129,23
-115,500,3427,-130,-175,36
-33,448,3580,-124,-206,39
41,450,3551,-92,-203,29
72,382,3447,-66,-203,-3
101,302,3360,-43,-223,-31
224,207,3403,-24,-258,-51
335,59,3615,-20,-276,-57
317,19,3591,4,-258,-47
215,17,3339,21,-245,-26
134,-2,3121,-12,-272,0
134,58,3123,-51,-326,34
188,210,3031,-30,-381,56
177,335,3034,-73,-426,78
170,484,3004,-110,-461,80
212,292,3090,-126,-512,39
147,-76,3445,-168,-556,21
128,-277,3766,-152,-554,57
199,-138,3765,-90,-522,124
215,312,3701,-72,-503,171
207,559,3620,-62,-510,143
289,493,3679,-40,-542,76
373,167,3844,-50,-566,47
375,-97,4008,-89,-574,88
370,-81,4113,-125,-565,161
398,75,4211,-106,-558,206
414,259,4239,-109,-546,224
401,384,4272,-114,-535,203
384,253,4266,-78,-523,138
327,201,4114,-98,-521,114
377,265,4280,-190,-544,137
487,409,4559,-199,-560,143
563,504,4667,-182,-549,119
594,408,4762,-201,-527,103
602,207,4710,-230,-499,104
566,66,4621,-273,-486,142
676,282,4620,-347,-490,202
850,224,4881,-396,-484,192
884,265,5169,-285,-449,141
867,484,5084,-249,-360,100
801,533,4944,-269,-304,21
803,172,5254,-127,-284,-73
861,-77,5062,-5,-212,-66
904,106,4870,4,-187,2
970,470,5076,-45,-189,52
1003,703,5145,-93,-157,56
1049,711,5094,-102,-132,28
1097,650,5204,-102,-118,5
1135,630,5300,-110,-77,11
1179,612,5314,-83,-13,12
1138,540,5084,-47,60,0
1130,525,4872,-41,108,-7
1203,596,4898,-43,139,-27
1291,656,4999,-40,193,-63
1269,810,4980,-34,279,-100
1110,986,4651,-30,361,-146
930,885,4364,-32,390,-218
844,789,4231,-56,375,-255
805,813,4297,-94,353,-261
760,872,4198,-135,368,-265
577,820,3800,-197,382,-280
437,773,3562,-282,338,-289
442,776,3620,-328,271,-310
474,794,3665,-331,235,-344
448,787,3586,-316,221,-392
450,773,3441,-305,211,-450
511,589,3414,-308,187,-510
513,413,3485,-332,170,-526
409,485,3398,-385,174,-499
288,628,3169,-431,157,-494
288,628,3169,-431,157,-494
269,516,3168,-406,88,-539
328,501,3388,-402,26,-563
410,585,3419,-444,0,-570
512,556,3485,-455,-36,-603
531,486,3512,-422,-59,-663
535,340,3437,-418,-66,-726
550,33,3392,-428,-80,-775
554,-273,3381,-413,-105,-789
664,-339,3550,-379,-137,-758
692,-190,3628,-366,-134,-718
667,-136,3469,-361,-115,-724
593,-320,3193,-379,-126,-761
581,-685,3126,-446,-184,-761
558,-951,3178,-489,-253,-708
555,-966,3195,-512,-308,-627
600,-829,3169,-516,-353,-583
619,-790,3131,-516,-401,-594
668,-920,3117,-539,-459,-622
745,-1156,3243,-553,-525,-632
767,-1321,3442,-529,-564,-612
764,-1353,3512,-466,-560,-582
741,-1497,3399,-365,-555,-566
755,-1642,3386,-278,-578,-529
784,-1670,3484,-211,-599,-463
712,-1505,3369,-167,-601,-378
654,-1218,3127,-148,-623,-320
785,-1250,3074,-120,-695,-343
926,-1545,3280,-103,-779,-345
983,-1521,3445,-120,-818,-262
1088,-1398,3519,-173,-830,-168
1184,-1360,3696,-190,-842,-111
1239,-1308,3829,-167,-847,-70
1222,-1326,3952,-171,-837,-36
1158,-1364,3994,-142,-819,-17
1206,-1393,3922,-87,-805,-8
1341,-1578,3841,-21,-800,-8
1337,-1784,3808,24,-800,22
1334,-1570,3842,59,-803,94
1467,-1320,4041,146,-811,100
1669,-1369,4332,242,-793,68
1814,-1475,4476,275,-731,95
1818,-1450,4514,277,-655,176
1770,-1423,4479,306,-600,267
1671,-1457,4241,316,-558,357
1515,-1583,3870,307,-553,443
1499,-1770,3772,345,-605,502
1691,-1659,4155,422,-662,557
1969,-1163,4780,544,-646,582
2109,-600,4946,644,-527,552
2087,-565,4475,678,-408,469
2003,-1037,4226,636,-394,423
2049,-1369,4461,603,-414,496
2169,-1251,4571,629,-381,621
2173,-873,4506,674,-314,708
2148,-400,4512,729,-259,719
2192,-125,4558,768,-213,666
2259,-172,4545,765,-169,605
2331,-373,4543,743,-130,585
2378,-372,4675,730,-84,604
2361,-247,4634,731,-10,623
2340,-195,4491,720,49,632
2256,-155,4463,695,86,644
2191,-159,4319,659,116,671
2143,-284,4312,616,124,706
2076,-140,4497,611,143,753
2102,401,4619,650,201,762
2058,764,4616,685,280,684
2051,920,4612,673,349,591
2011,999,4660,604,401,537
2011,999,4660,604,401,537
1955,1033,4631,503,455,523
1956,894,4476,361,518,518
1820,468,4352,266,562,541
1749,563,4332,245,588,629
1891,939,4869,306,651,650


-41,-1249,3959,344,-100,63
306,-1105,4474,438,-100,148
317,-821,4634,486,-36,180
209,-515,4358,464,47,213
5,-459,3980,380,75,228
-55,-466,4018,374,23,207
-80,-765,4100,398,-12,175
-146,-953,4020,361,-26,221
-122,-710,4088,343,-56,298
-66,-524,4215,380,-77,310
-20,-559,4235,439,-78,303
154,-422,4348,439,-70,345
201,-75,4410,324,-26,404
142,-30,4326,287,17,387
-11,-344,4177,256,45,361
-154,-522,3956,223,48,397
-143,-430,3873,233,16,439
-102,-268,4001,266,-14,442
-26,-129,4009,301,-11,418
-51,-424,3900,285,-10,391
-152,-684,3847,283,-33,424
-49,-538,3900,286,-62,501
17,-505,4029,289,-73,530
26,-343,4124,275,-56,561
65,47,4137,306,-39,570
65,47,4137,306,-39,570
107,279,4192,346,-27,523
190,290,4213,364,-8,470
147,177,4167,375,7,431
137,104,4332,455,27,419
93,220,4004,523,60,429
5,406,3851,488,33,437
-11,338,3980,430,0,422
-30,162,3979,419,-7,419
-24,352,3901,412,-15,452
40,668,3974,414,-30,445
84,570,3994,431,-30,380
139,362,4016,431,-27,365
185,461,4109,420,-15,413
207,849,4129,427,13,433
221,1143,4051,451,41,373
153,1142,3915,431,47,284
88,1143,3848,382,33,239
99,1209,3822,314,5,223
165,1089,3896,216,-30,221
180,852,3991,171,-48,229
209,678,3956,134,-39,268
228,783,4017,82,-28,337
322,1309,4108,91,0,357
328,1592,4002,136,35,260
218,1425,3827,142,54,141
145,1209,3790,96,54,89
61,1053,3727,56,46,72
-27,965,3588,11,26,79
-11,817,3479,-32,-7,94
54,657,3497,-88,-49,130
22,632,3472,-142,-74,185
-7,823,3388,-153,-90,218
1,929,3330,-106,-114,168
21,736,3282,-24,-145,79
42,467,3137,-18,-168,49
109,362,3043,-58,-206,76
250,383,3173,-86,-257,99
304,511,3377,-88,-281,102
243,469,3283,-84,-264,74
127,189,3036,-66,-274,45
111,-19,2935,-89,-331,86
134,-80,3091,-138,-398,159
162,148,3343,-123,-434,213
139,425,3411,-57,-422,205
71,370,2963,85,-425,138
108,139,2771,77,-508,116
197,29,3110,-104,-601,177
309,23,3632,-162,-638,226
380,110,3852,-26,-616,220
379,163,3910,44,-572,210
376,325,3996,90,-540,205
406,520,3961,145,-526,172
469,483,3841,81,-529,143
465,295,4119,-52,-565,157
551,486,4336,-67,-580,186
701,490,4540,-99,-573,177
727,489,4761,-131,-542,184
733,753,4749,-154,-490,197
660,629,4607,-184,-448,153
563,425,4590,-174,-440,129
577,459,4476,-169,-451,146
650,391,4587,-271,-471,171
696,378,4918,-283,-473,172
710,633,4877,-251,-427,157
779,782,4902,-291,-392,113
906,633,5063,-359,-355,53
963,489,5346,-339,-311,30
980,633,5336,-193,-243,25
871,594,4988,-141,-187,2
854,347,5130,-24,-194,0
968,557,5197,49,-175,35
968,557,5197,49,-175,35
1125,842,5350,70,-138,34
1248,1095,5479,75,-79,7
1233,1241,5450,29,1,-33
1125,1130,5289,-5,71,-92
1090,1007,5234,1,118,-135
1103,1021,5214,17,169,-154
1118,1091,5089,36,229,-168
1034,1075,4846,26,293,-186
923,1055,4549,0,327,-190
883,1109,4351,-43,329,-189
861,1181,4268,-101,316,-191
861,1203,4257,-147,308,-211
829,1048,4194,-176,321,-252
692,856,4112,-188,340,-277
603,923,3984,-163,353,-285
622,1069,3905,-123,359,-330
574,1005,3757,-100,368,-407
454,892,3414,-137,368,-454
413,726,3031,-219,321,-477
410,555,3107,-328,219,-474
572,543,3446,-378,146,-447
595,597,3451,-405,146,-451
489,617,3287,-410,141,-470
490,642,3210,-406,108,-507
480,485,3142,-414,76,-572
420,473,3149,-429,44,-600
502,557,3103,-387,8,-642
516,424,2987,-357,-29,-721
431,337,2880,-398,-76,-760
401,170,2907,-438,-148,-794
338,-26,2949,-457,-208,-814
299,-123,2864,-498,-261,-798
291,-244,2844,-439,-334,-796
289,-332,2617,-326,-423,-820
429,-747,2812,-552,-502,-758
615,-792,3484,-605,-572,-666
750,-489,3905,-515,-537,-606
734,-363,3741,-404,-436,-625
635,-400,3398,-312,-383,-659
515,-555,2948,-278,-407,-670
500,-756,2757,-340,-506,-650
540,-830,3116,-437,-638,-591
706,-686,3500,-418,-712,-559
852,-789,3556,-344,-733,-584
829,-1078,3585,-345,-745,-565
786,-1179,3495,-381,-752,-473
895,-1279,3493,-392,-781,-387
1012,-1318,3778,-374,-809,-304
1095,-1147,3965,-339,-778,-223
1089,-969,3879,-272,-722,-200
1089,-923,3625,-218,-697,-221
1210,-1138,3541,-191,-733,-277
1296,-1483,3812,-193,-784,-298
1315,-1617,3953,-191,-783,-238
1338,-1644,3825,-149,-763,-154
1310,-1623,3707,-111,-771,-70
1365,-1525,3918,-116,-796,10
1570,-1478,4371,-52,-797,43
1611,-1462,4700,66,-736,51
1463,-1468,4573,160,-631,82
1372,-1467,4161,206,-570,139
1356,-1532,3847,218,-597,198
1375,-1729,3755,219,-659,265
1460,-1694,3893,253,-712,352
1534,-1366,4202,336,-721,406
1664,-932,4458,461,-686,397
1855,-682,4568,540,-626,360
1900,-834,4567,538,-571,340
1900,-834,4567,538,-571,340
1864,-1025,4570,491,-525,396
1855,-1159,4488,482,-489,471
1800,-1130,4490,508,-468,552
1871,-843,4532,562,-441,617
1974,-677,4490,647,-402,605
2058,-687,4450,710,-368,576
2178,-525,4655,740,-333,583
2296,-256,4795,795,-259,572
2340,-37,4771,834,-167,543
2327,119,4756,825,-82,525
2224,98,4550,797,-14,517
2093,-118,4267,738,5,543
2038,-271,4188,672,-20,620
2089,-142,4376,632,-39,707
2134,104,4581,639,-11,741
2115,279,4626,663,48,730
2229,372,4706,675,112,705
2269,372,4837,707,196,666
2224,475,4770,741,305,638
2166,694,4549,740,396,614
2107,775,4438,663,446,581
2007,920,4614,549,489,557
1894,907,4562,526,557,522
1897,977,4587,533,587,506
1942,796,5082,599,684,500
1874,872,3848,668,781,565
1926,1129,3448,528,644,644
2103,1147,4432,303,543,677
2082,1215,4802,275,654,663
1858,1247,3818,247,856,639
1738,1231,2932,271,850,564
1631,1073,3057,304,705,467
1497,981,3143,245,635,446


309,-158,4574,469,40,506
100,97,4044,466,125,465
-9,-249,3903,480,104,391
-147,-535,3879,479,74,387
-78,-450,3942,402,52,475
293,168,4159,408,22,550
339,263,4313,324,37,567
287,430,4337,299,77,606
214,745,4059,360,111,601
66,657,3842,365,99,543
-15,409,3821,360,57,513
67,358,3989,348,24,539
155,674,4213,335,32,572
182,1060,4230,379,80,533
204,1052,4140,426,123,434
195,765,4290,513,160,351
-5,551,3862,563,202,357
-120,865,3513,451,173,454
-83,1212,3646,277,104,500
66,1194,3951,269,55,435
93,1011,4036,350,55,361
75,960,4021,323,90,367
0,1087,3990,334,116,372
-115,1210,3849,351,133,359
-143,1256,3694,339,121,341
-96,1113,3776,281,85,322
-105,1010,3874,229,71,337
-207,1115,3760,189,78,377
-223,1341,3613,163,55,393
-137,1627,3704,120,7,379
34,1675,3875,90,-25,316
108,1465,3996,51,-27,268
98,1423,4028,0,-9,278
75,1614,3986,-3,11,271
77,1630,3952,19,27,198
52,1411,3845,70,36,103
-20,1172,3798,81,41,63
-65,1179,3739,72,43,73
-122,1189,3511,63,37,76
-140,1140,3374,30,0,78
-150,1184,3345,-25,-49,95
-152,1236,3263,-92,-88,112
-111,1169,3283,-115,-134,94
-45,1029,3329,-98,-166,57
1,787,3277,-106,-177,40
54,768,3274,-143,-192,74
142,980,3220,-156,-209,97
180,950,3275,-154,-239,58
85,526,3224,-127,-254,-1
37,62,3002,-95,-284,-7
103,-192,2998,-105,-356,39
203,-171,3287,-160,-415,143
231,277,3317,-182,-424,240
152,642,3138,-203,-433,240
86,508,3071,-159,-483,159
111,281,3072,-93,-548,116
226,256,3241,-86,-599,132
340,428,3652,-111,-617,169
374,729,3906,-96,-589,179
318,930,3887,-86,-543,145
329,561,3987,-157,-513,115
329,561,3987,-157,-513,115
280,341,3910,-18,-510,102
346,384,3888,13,-521,161
386,247,3902,-90,-523,231
317,132,4026,-116,-530,277
388,443,4132,-95,-529,321
484,848,4147,-101,-523,308
475,907,4094,-131,-523,244
499,791,4093,-185,-540,189
569,835,4191,-283,-558,180
619,849,4553,-321,-561,158
631,847,4670,-253,-528,113
623,750,4684,-268,-490,109
615,850,4877,-351,-471,164
677,1200,5189,-398,-440,190
716,1346,5217,-408,-377,123
695,1190,5029,-453,-315,27
667,735,4911,-608,-270,2
770,496,4903,-518,-287,7
807,323,4855,-432,-295,48
793,409,4840,-429,-287,117
893,612,5020,-370,-282,132
976,714,5135,-290,-240,98
1027,744,4974,-255,-184,72
1044,732,4951,-262,-156,54
1033,713,5115,-262,-108,28
958,795,4978,-191,-30,-4
868,913,4606,-119,23,-43
844,907,4363,-112,22,-90
915,1025,4551,-167,-4,-111
1123,1134,4762,-191,16,-139
1238,945,4768,-162,79,-202
1203,777,4724,-156,141,-202
1158,1085,4739,-167,200,-151
1165,1447,4516,-147,260,-168
1099,1292,4222,-155,285,-254
1021,1105,4041,-183,278,-304
1017,1057,3949,-234,265,-324
873,918,3809,-272,267,-366
768,897,3720,-268,256,-407
755,894,3653,-279,245,-447
688,779,3599,-304,229,-479
621,899,3590,-340,208,-475
580,986,3429,-387,202,-501
496,764,3270,-439,177,-559
435,546,3268,-472,124,-585
464,575,3355,-458,80,-587
560,640,3281,-429,60,-622
498,593,3209,-445,43,-678
445,580,3205,-449,17,-738
509,385,3141,-405,-9,-838
454,81,3125,-431,-48,-884
401,-4,3123,-500,-83,-843
350,-170,2993,-552,-120,-802
212,-354,2880,-581,-185,-761
115,-341,2861,-576,-269,-705
186,-235,2846,-523,-354,-699
290,-351,2838,-475,-430,-747
473,-588,3041,-432,-506,-782
660,-670,3174,-417,-545,-758
741,-741,3224,-460,-556,-709
764,-820,3372,-459,-572,-667
716,-901,3353,-423,-566,-639
574,-1046,3147,-403,-571,-606
562,-1083,3089,-400,-627,-546
655,-1091,3113,-362,-703,-507
765,-1029,3248,-327,-783,-482
965,-1038,3445,-325,-838,-467
1172,-1177,3757,-302,-865,-450
1172,-1177,3757,-302,-865,-450
1232,-1325,3738,-265,-795,-342
1232,-1325,3738,-265,-795,-342
1077,-1284,3600,-288,-785,-277
1114,-1253,3683,-271,-811,-252
1258,-1393,3798,-184,-829,-281
1326,-1665,3856,-133,-823,-278
1310,-1988,3749,-117,-807,-218
1311,-2117,3674,-73,-814,-111
1309,-2019,3522,-16,-833,0
1344,-1876,3467,22,-875,78
1557,-1808,3791,72,-933,116
1736,-1552,4382,131,-934,168
1844,-1170,4682,194,-853,213
1762,-1071,4554,236,-752,216
1650,-1183,4242,233,-702,242
1657,-1395,4139,222,-724,288
1688,-1662,4253,227,-755,344
1695,-1764,4356,285,-750,410
1810,-1704,4547,423,-721,437
1998,-1515,4801,598,-659,436
2176,-1278,4924,749,-561,439
2296,-1182,4724,834,-453,457
2271,-1358,4563,864,-381,489
2230,-1255,4668,890,-344,578
2379,-807,4833,948,-294,658
2434,-446,4940,985,-215,691
2359,-131,4775,965,-130,717
2290,-145,4508,907,-86,728
2206,-410,4369,847,-91,758
2200,-346,4422,807,-103,836
2298,-78,4644,832,-79,864
2410,193,4908,879,-6,853
2549,583,5033,889,106,843
2563,839,5059,869,226,797
2497,912,5019,823,331,746
2333,824,4890,747,412,714
2120,577,4660,688,468,694
1956,384,4448,676,495,689
1937,376,4323,680,503,704
1866,676,4186,673,506,732
2000,1328,4396,563,514,736
2094,1383,4587,522,571,610
2077,1058,4419,537,661,513
2068,881,4905,505,755,510
1841,624,4300,604,950,556
1514,827,2712,613,963,659
1489,1315,2932,396,735,754
1538,1733,3884,237,616,752
1553,2049,3817,208,679,645
1496,1894,3350,181,725,472
1351,1548,2992,128,706,348
1176,1350,2446,75,632,290
1105,1086,2334,2,472,244
1138,850,2618,-85,321,237
1210,831,2903,-146,243,268
1234,958,2944,-149,236,265
1250,886,2854,-129,246,205
1191,696,2914,-98,236,147
1117,636,2868,-61,229,121
1020,601,2731,-38,207,102
947,584,2677,-31,148,86
997,581,2765,-37,71,73
1085,560,2976,-54,3,65
1120,607,3124,-83,-39,73
1150,593,3220,-114,-73,80
1132,510,3295,-143,-109,85
1167,524,3347,-177,-150,106
1210,611,3517,-230,-197,125
1260,602,3711,-271,-224,111


-4,-29,4055,423,46,602
93,220,4138,392,13,680
96,361,4239,382,7,700
149,505,4199,396,19,699
216,752,4215,365,36,690
191,657,4274,344,63,634
76,318,4138,374,90,589
34,196,4009,382,98,603
89,396,4051,389,99,633
139,695,4024,406,107,638
99,892,3930,391,112,622
90,1029,3852,283,106,623
72,1167,4104,200,76,617
85,1262,4305,301,101,560
-39,1063,3662,437,127,474
-47,775,3539,370,60,473
90,807,4041,248,1,526
167,1355,4453,270,33,545
220,1770,4206,400,123,461
154,1572,3817,411,162,360
28,1396,3835,273,140,367
-2,1398,4030,180,121,401
-59,1368,3903,175,127,402
-100,1428,3775,152,114,403
-64,1410,3835,152,84,381
-79,1309,3821,152,65,369
-82,1486,3780,92,51,396
99,1585,3932,82,28,360
212,1431,4175,113,37,288
188,1329,4113,102,91,260
16,1132,3963,53,124,255
-124,1267,3801,38,128,261
-132,1186,3682,19,104,224
-134,1263,3739,145,44,163
18,1471,3740,207,14,121
102,1365,3846,146,1,85
180,1383,4063,113,5,83
229,1534,4109,116,39,90
151,1587,3945,74,85,87
67,1527,3800,21,100,72
67,1527,3800,21,100,72
-39,1271,3819,-9,87,46
-156,1144,3702,-24,77,54
-195,1273,3570,-61,50,77
-211,1267,3576,-86,7,60
-238,985,3489,-103,-29,36
-231,791,3447,-142,-71,59
-137,880,3584,-188,-113,107
-80,944,3583,-201,-126,114
-13,912,3548,-192,-131,89
45,853,3608,-149,-135,40
-23,788,3547,-118,-119,0
-163,582,3205,-97,-118,-24
-195,459,3044,-91,-174,-2
-91,468,2969,-112,-245,36
39,423,3015,-153,-310,62
124,399,3109,-154,-350,81
122,377,3005,-142,-362,95
72,271,2927,-156,-388,104
13,267,3022,-138,-429,104
54,390,3126,-67,-456,94
112,387,3059,-53,-461,95
121,298,3104,-98,-488,137
93,452,3179,-138,-514,209
16,601,3180,-153,-526,236
-51,595,3115,-87,-544,202
-74,616,2893,-22,-597,168
76,622,3093,-88,-697,179
276,623,3535,-139,-772,202
572,649,3674,-85,-786,196
771,628,3663,-98,-777,199
824,528,3924,-148,-759,203
852,412,4118,-52,-714,172
759,302,3972,-32,-650,175
665,346,3921,-57,-629,215
616,473,3862,-77,-638,249
615,473,3701,-149,-668,287
674,328,3966,-235,-716,312
653,508,4375,-209,-729,320
697,1075,4539,-216,-688,317
733,1186,4600,-192,-653,218
741,727,4526,-142,-643,113
771,489,4577,-264,-652,160
936,832,4907,-525,-636,291
1121,1237,5401,-523,-592,263
1064,907,5305,-341,-493,141
995,443,4911,-296,-426,123
997,431,4978,-288,-434,162
1126,776,5327,-228,-433,175
1247,1261,5387,-137,-374,120
1309,1367,5286,-83,-326,0
1366,877,5576,-4,-301,-88
1342,837,5538,4,-218,-47
1318,1103,5202,-50,-142,7
1303,1170,5107,-124,-127,13
1394,1236,5283,-170,-118,4
1515,1273,5445,-156,-70,-22
1520,1274,5319,-154,15,-31
1480,1327,5055,-176,87,-29
1447,1358,4862,-178,132,-60
1447,1366,4753,-171,166,-118
1400,1329,4593,-177,205,-183
1360,1269,4393,-206,241,-233
1294,1142,4295,-255,260,-268
1181,998,4238,-297,281,-280
1128,1042,4157,-311,310,-270
1097,1083,3997,-303,341,-283
962,1007,3736,-313,364,-305
846,988,3511,-347,353,-320
794,1049,3439,-387,318,-349
798,1075,3539,-448,294,-398
798,1075,3539,-448,294,-398
759,953,3505,-485,297,-458
643,860,3189,-531,287,-482
552,827,2976,-614,228,-485
543,851,3023,-687,141,-495
611,937,3107,-720,67,-527
719,909,3093,-711,20,-600
733,732,3106,-726,-21,-678
659,593,3050,-777,-54,-711
626,471,3075,-835,-99,-725
650,466,3210,-808,-146,-754
621,479,3120,-770,-164,-807
625,264,3049,-789,-182,-872
609,-33,3054,-756,-218,-925
609,-293,3076,-720,-253,-934
671,-535,3076,-740,-281,-879
666,-649,3040,-780,-306,-773
656,-603,2933,-809,-336,-659
637,-579,2803,-790,-389,-604
601,-607,2818,-773,-461,-595
651,-749,2966,-703,-532,-623
756,-927,2975,-580,-578,-671
824,-976,2864,-513,-611,-680
963,-904,2849,-487,-663,-676
1191,-929,3245,-462,-730,-692
1267,-1174,3595,-438,-723,-690
1147,-1270,3375,-412,-668,-626
1005,-1252,2978,-433,-672,-538
1017,-1301,3041,-423,-774,-494
1150,-1508,3458,-392,-874,-454
1267,-1539,3627,-344,-893,-380
1419,-1347,3731,-197,-902,-336
1370,-1258,3759,-111,-898,-314
1489,-1263,3823,-226,-851,-240
1536,-1454,3621,-157,-850,-243
1617,-1713,3903,-66,-893,-192
1902,-1473,4145,-78,-861,-64
2008,-1289,4041,-95,-799,-9
1964,-1409,3921,-101,-762,4
1855,-1633,3845,-95,-744,18
1778,-2014,3726,-23,-736,24
1775,-2442,3656,98,-743,56
1771,-2534,3783,198,-744,158
1862,-2083,4144,307,-728,277
1946,-1527,4279,438,-673,316
2080,-1314,4290,526,-620,296
2185,-1516,4374,565,-588,292
2109,-1818,4404,567,-533,358
1947,-1765,4301,599,-487,484
2053,-1217,4381,676,-474,580
2207,-899,4232,763,-445,562
2186,-1031,4052,833,-495,527
2333,-976,4520,785,-527,585
2467,-1044,4583,773,-453,619
2476,-1181,4555,818,-361,651
2490,-919,4651,909,-284,712
2599,-461,4684,967,-189,758
2671,-246,4648,994,-100,743
2643,-298,4532,1007,-30,720
2554,-464,4357,972,26,742
2543,-543,4393,946,62,795
2589,-371,4612,985,113,841
2583,-97,4810,1057,211,857
2546,146,4776,1127,335,856
2514,457,4622,1148,449,863
2466,681,4451,1150,530,853
2367,993,4481,1082,582,848
2329,1228,4395,997,634,824
2198,1040,4167,929,670,764
2198,1040,4167,929,670,764
1985,767,4069,811,680,765
1864,924,3870,712,681,826
1755,1317,3529,663,638,836
1865,1557,3689,551,549,784
2130,1561,4080,472,507,690
2299,1566,4236,477,537,592
2306,1519,4257,452,614,523
2107,1451,4157,412,719,470
1916,1443,3843,418,812,417
1697,1501,3367,400,862,376
1525,1696,2941,321,842,343
1387,1757,2500,213,768,274
1211,1547,2386,65,633,193
1138,1327,2583,-52,490,155
1126,1174,2607,-136,398,154
1152,1047,2536,-231,326,168
1169,845,2618,-310,267,173
1121,634,2716,-335,232,176
1079,563,2781,-335,223,195


-117,327,3961,525,100,485
-181,82,3913,490,39,455
-148,-25,3962,435,-14,481
-62,18,3979,377,-47,519
13,-37,4136,366,-67,525
48,33,4233,416,-51,526
112,230,4159,488,-9,509
175,406,4160,538,26,477
161,593,4128,511,65,468
76,632,4035,440,100,472
-106,575,3823,361,112,504
-176,572,3614,290,83,549
-241,507,3648,211,23,582
-85,635,3874,195,-21,610
-42,765,3946,263,-34,574
17,610,3831,305,-26,514
155,567,4044,256,-27,511
176,626,4293,245,15,519
194,891,4370,353,85,492
194,891,4370,353,85,492
82,833,4124,442,168,444
-164,838,3602,445,190,448
-324,1123,3472,359,124,468
-302,1273,3634,280,46,436
-241,1025,3732,265,-4,371
-171,759,3911,276,-42,351
-68,809,4159,316,-48,382
62,1027,4235,352,-5,410
97,1149,4109,381,50,396
45,1108,3891,367,82,379
-36,1087,3869,327,76,380
-41,1259,3878,325,68,377
-98,1395,3690,312,58,348
-157,1369,3608,214,27,336
-49,1460,3715,184,-23,317
-51,1214,3766,171,-52,275
-3,971,3776,153,-68,287
139,1122,3994,110,-71,344
345,1407,4291,97,-32,349
333,1507,4346,139,56,292
126,1594,4003,159,144,242
-15,1634,3655,127,165,192
-128,1678,3651,78,125,143
-230,1874,3686,52,95,97
-219,1769,3620,55,57,28
-193,1375,3694,10,9,-1
-261,1065,3832,-52,-11,40
-295,1237,3753,-76,-7,120
-294,1454,3542,-76,-13,129
-284,1317,3482,-83,-50,87
-227,1163,3496,-124,-84,81
-260,1098,3442,-199,-98,110
-301,1087,3302,-225,-120,121
-278,984,3236,-174,-161,85
-174,854,3206,-168,-198,63
-122,794,3341,-175,-223,58
-58,787,3237,-54,-233,24
8,655,3049,-38,-254,14
33,554,2972,-97,-298,45
110,494,3031,-128,-358,75
162,442,3171,-147,-401,91
253,405,3288,-116,-420,94
398,439,3454,-46,-415,88
331,519,3451,-7,-381,93
243,530,3183,1,-353,119
173,507,3017,-26,-388,153
163,672,3179,-71,-451,200
232,789,3240,-101,-487,210
267,717,3205,-148,-524,200
301,678,3337,-258,-576,223
393,621,3630,-337,-622,242
411,568,3793,-369,-631,258
463,513,3777,-497,-612,300
436,583,4149,-528,-611,318
387,834,4366,-295,-574,243
231,628,3930,-174,-507,145
242,406,3752,-188,-534,120
365,421,4211,-273,-599,173
440,632,4488,-410,-587,261
480,711,4466,-451,-551,278
547,700,4482,-331,-552,238
738,726,4606,-276,-544,213
731,669,4663,-318,-501,192
657,638,4591,-313,-466,169
760,688,4700,-363,-461,168
893,721,5168,-387,-458,161
927,802,5317,-365,-384,138
844,785,5160,-367,-294,101
844,785,5160,-367,-294,101
788,817,5137,-307,-259,49
825,893,5223,-333,-235,31
903,916,5435,-436,-177,25
870,1086,5420,-439,-106,8
800,1256,5310,-375,-67,-32
871,1091,5404,-253,-47,-73
957,1035,5338,-235,1,-57
835,1148,5085,-298,38,-15
775,1398,4927,-351,50,-11
774,1441,4781,-334,51,-99
752,1258,4677,-315,43,-194
738,1059,4656,-334,46,-233
758,1027,4638,-331,69,-239
838,1013,4556,-291,115,-263
812,1008,4500,-263,169,-286
756,1180,4376,-252,230,-298
698,1275,4137,-226,274,-354
674,1109,3872,-237,280,-417
675,873,3790,-297,252,-434
675,789,3772,-326,223,-430
668,860,3645,-329,208,-447
699,911,3576,-332,189,-500
709,802,3546,-324,170,-575
736,672,3487,-350,158,-622
709,264,3441,-381,139,-636
640,165,3405,-476,124,-547
569,540,3262,-590,107,-469
545,793,3190,-642,72,-505
590,782,3186,-667,23,-610
626,634,3102,-710,-18,-705
585,382,3103,-779,-71,-766
533,167,3080,-806,-123,-802
547,-41,2860,-808,-174,-828
552,-451,2785,-780,-257,-872
597,-749,3044,-749,-345,-863
604,-658,3314,-709,-375,-800
571,-403,3375,-630,-353,-778
502,-341,3243,-528,-335,-811
406,-388,2895,-456,-344,-842
407,-700,2559,-406,-421,-882
582,-971,2823,-411,-553,-846
605,-933,3189,-411,-637,-767
691,-874,3346,-504,-619,-678
669,-825,3236,-469,-597,-662
611,-842,3103,-403,-616,-679
569,-1033,2967,-388,-655,-678
713,-1157,3018,-389,-718,-629
830,-1162,3198,-398,-774,-550
954,-1132,3093,-409,-803,-482
1091,-1206,3212,-441,-857,-456
1099,-1228,3666,-455,-894,-437
1063,-1184,3643,-398,-868,-432
1140,-1356,3533,-347,-866,-448
1191,-1619,3597,-326,-897,-426
1191,-1790,3607,-332,-917,-336
1201,-1952,3408,-321,-933,-240
1229,-2002,3372,-279,-979,-154
1376,-1881,3483,-204,-1027,-97
1550,-1795,3858,-137,-1061,-64
1740,-1699,4383,-54,-1041,-22
1871,-1678,4505,42,-951,16
1895,-1897,4254,108,-861,64
1984,-2090,4102,138,-825,163
2094,-2303,4182,161,-803,276
1960,-2417,4306,257,-755,377
1824,-2227,4147,413,-682,464
1846,-1982,3979,567,-641,486
1921,-1739,4056,680,-645,480
2078,-1511,4195,744,-657,484
2195,-1392,4555,775,-659,495
2195,-1392,4555,775,-659,495
2302,-1305,4878,818,-602,521
2409,-1281,4805,889,-498,552
2444,-1266,4881,931,-415,608
2415,-1028,5036,947,-324,693
2353,-758,4856,983,-225,751
2214,-714,4617,995,-169,772
2124,-775,4527,986,-157,796
2169,-705,4618,1017,-157,825
2308,-500,4795,1068,-127,838
2457,-301,4812,1110,-51,825
2622,-202,4751,1143,34,803
2797,-175,4798,1157,121,797
2840,-139,5043,1128,225,832
2718,411,5270,1075,368,928
2709,1106,5109,1061,540,947
2546,1092,4724,1033,668,832
2196,924,4333,899,729,797
1952,1159,3843,769,703,831
1871,1240,3900,669,579,800
1845,1213,4322,551,484,773
1967,1344,4412,479,481,761
2042,1233,4183,433,504,708
1997,1116,4289,332,515,690
1941,1239,4440,230,600,681
1938,1043,4384,261,723,608
1900,674,4297,308,845,555
1748,335,4431,424,1019,561
1312,704,2788,516,1174,688
1021,1640,1667,391,1010,740
991,1853,2227,255,690,585
1069,1552,2922,163,508,417
1072,1220,2789,90,471,323
1003,1013,2502,18,410,299
983,917,2445,-30,302,303
1090,836,2586,-66,204,305
1168,699,2886,-124,150,322
1061,815,2685,-207,151,368
1036,699,2845,-707,170,477
1064,705,3015,-604,108,444
1105,849,3098,-339,57,365


139,-323,4431,371,-47,420
163,-52,4433,444,3,406
186,142,4300,428,46,407
191,304,4264,352,62,429
175,345,4365,332,64,435
121,190,4257,333,82,452
69,31,3923,307,81,505
89,162,3911,233,38,589
180,616,4073,175,5,637
298,984,4289,195,-7,581
367,730,4388,255,14,461
322,264,4330,273,56,418
270,168,4229,228,96,479
229,265,4141,217,124,534
171,419,4247,240,151,550
91,572,3898,379,195,508
26,723,3486,430,164,459
40,736,3656,339,75,441
162,819,4054,299,31,439
258,1028,4131,322,55,426
275,1128,4068,308,92,401
200,1043,3986,304,121,366
108,1006,3892,301,138,355
27,828,3756,291,140,361
-73,766,3574,265,117,410
-8,1085,3573,184,69,480
100,1149,3736,165,30,455
106,997,3813,178,20,401
140,974,3943,158,24,394
175,1081,4063,168,44,387
153,1152,4091,193,80,363
99,1101,4044,188,117,343
9,1081,3954,166,131,340
-12,1191,3840,163,126,329
-64,1232,3809,161,104,287
-83,1316,3748,170,76,238
-20,1133,3683,212,35,159
-6,895,3828,217,-5,137
54,1078,3955,162,-11,188
104,1352,3975,115,1,206
124,1469,4027,108,8,167
147,1491,4071,112,29,120
131,1496,4115,104,64,83
-6,1487,3997,119,103,41
-149,1563,3616,113,119,22
-149,1563,3616,113,119,22
-233,1534,3300,37,70,8
-242,1307,3314,-87,-19,4
-98,1024,3538,-191,-99,35
-16,907,3684,-256,-135,97
7,954,3587,-281,-133,149
42,851,3383,-299,-146,157
73,637,3388,-336,-179,160
131,617,3459,-321,-195,160
169,669,3378,-271,-188,137
174,543,3266,-201,-193,84
100,393,3158,-135,-208,47
44,367,2990,-100,-239,44
42,394,2837,-153,-284,75
36,291,2965,-234,-345,107
76,279,3133,-172,-398,115
87,233,2989,-94,-420,120
122,122,2924,-97,-448,147
210,256,3050,-79,-495,173
259,505,3229,-68,-512,170
284,742,3244,-66,-507,150
325,683,3167,-103,-524,124
313,406,3187,-213,-568,149
318,231,3267,-381,-613,248
278,229,3517,-435,-649,328
350,383,3518,-242,-667,310
464,385,3511,-130,-677,245
528,394,3842,-155,-677,219
585,613,4014,-183,-644,226
591,773,4139,-212,-616,215
521,912,4415,-263,-597,204
434,918,4539,-302,-556,168
271,653,4493,-257,-526,107
290,434,4282,-132,-540,70
462,185,4143,-217,-594,134
693,291,4542,-353,-666,246
970,641,5030,-386,-675,284
1165,935,5314,-387,-616,232
1267,1117,5704,-401,-529,130
1323,1025,5941,-324,-402,9
1322,894,5839,-225,-272,-75
1279,650,5709,-218,-172,-100
1098,543,5675,-181,-109,-62
954,755,5286,-176,-57,19
836,928,4955,-235,-64,63
820,1088,4908,-266,-122,53
929,960,5123,-224,-162,9
1083,979,5230,-166,-138,-19
1214,1187,5205,-186,-68,-39
1257,1325,5201,-189,9,-108
1243,1319,5094,-188,96,-197
1212,1073,4997,-159,163,-280
1130,921,4879,-126,222,-302
1033,1109,4622,-128,274,-272
999,1299,4382,-136,292,-285
1016,1201,4286,-154,289,-340
985,964,4282,-190,297,-371
863,890,4080,-219,324,-356
736,934,3739,-260,332,-341
675,938,3613,-296,299,-357
636,959,3634,-309,264,-391
646,1096,3448,-316,243,-418
673,990,3351,-348,197,-474
676,680,3453,-361,163,-520
618,702,3323,-425,174,-517
621,906,3233,-438,153,-545
704,879,3265,-433,124,-619
650,670,3177,-488,118,-667
641,598,3033,-542,88,-680
641,598,3033,-542,88,-680
674,398,2917,-599,38,-705
695,55,2913,-674,-22,-724
593,-192,3016,-706,-69,-712
540,-163,2939,-696,-84,-693
501,-147,2780,-660,-114,-726
416,-327,2667,-604,-172,-789
376,-456,2651,-576,-254,-808
462,-480,2666,-600,-337,-780
642,-686,2665,-591,-423,-775
673,-943,2666,-579,-504,-755
719,-1046,2822,-600,-577,-700
825,-1156,3216,-515,-627,-693
898,-1181,3510,-376,-612,-704
870,-1211,3560,-265,-546,-706
786,-1164,3331,-178,-503,-686
795,-1262,3216,-94,-524,-681
776,-1245,3239,61,-599,-689
755,-1400,3226,-77,-639,-592
904,-1486,3429,-169,-700,-473
1104,-1395,3879,-120,-760,-380
1171,-1269,3986,-100,-737,-282
1137,-1197,3862,-152,-698,-193
1102,-1267,3939,-179,-704,-141
1116,-1204,4027,-144,-711,-92
1161,-1106,3882,-147,-702,-49
1172,-1142,3761,-169,-715,-39
1252,-1353,3783,-176,-750,-50
1304,-1637,4015,-178,-781,-34
1371,-1649,4280,-125,-780,35
1438,-1436,4368,-51,-745,111
1409,-1194,4279,10,-703,152
1398,-1081,4126,53,-687,162
1451,-1302,3939,92,-696,145
1511,-1628,4045,119,-730,171
1651,-1590,4462,176,-736,257
1790,-1286,4746,268,-679,332
1756,-1127,4560,359,-584,355
1607,-1318,4114,393,-539,386
1537,-1546,3823,371,-576,467
1626,-1622,4028,372,-655,551
1740,-1431,4585,423,-684,621
1843,-1008,4671,529,-609,649
1830,-793,4434,637,-534,599
1898,-817,4374,688,-500,548
2108,-966,4540,754,-467,524
2193,-811,4737,818,-393,568
2192,-311,4611,836,-275,628
2203,-88,4398,841,-195,617
2170,-154,4378,807,-164,612
2087,-195,4408,743,-142,661
2055,-159,4395,717,-127,713
2089,-110,4403,718,-118,743
2158,-123,4450,726,-103,743
2188,-167,4489,753,-74,737
2317,29,4715,772,-28,757
2459,428,5038,800,59,753
2543,864,5226,827,189,709
2561,1060,5062,814,332,632
2457,764,4714,714,423,569
2254,604,4820,526,479,590
2045,611,4735,443,554,618
1899,596,4356,461,594,628
2028,554,5061,511,656,624
1899,335,3475,656,737,644
1922,728,3282,523,542,749
2102,1103,4192,328,408,791
2311,1265,4875,319,460,720
2258,1216,4913,393,668,620
1998,1249,4300,441,885,558
1998,1249,4300,441,885,558
1717,1114,3433,466,986,484
1347,912,2873,438,936,450
1073,1046,2578,350,810,484
1027,1276,2467,268,655,477
1044,1294,2530,195,509,404
1072,1192,2547,110,398,342
1123,1001,2660,21,313,307
1198,899,2870,-14,259,292
1281,878,2927,-7,252,274
1147,787,2797,-15,266,250
1049,975,2666,-24,251,244
1080,1129,2670,-16,205,180
1057,980,2864,-32,152,96
1049,735,3010,-59,109,66
1055,618,3075,-94,66,88


405,-794,4458,586,-69,275
373,-426,4544,600,3,307
246,-214,4290,604,73,299
128,-311,4134,537,83,304
51,-476,4146,484,50,345
51,-476,4146,484,50,345
-24,-552,4022,441,26,415
-18,-360,4002,417,-9,477
115,0,4242,466,-43,472
293,28,4370,534,-31,413
377,-61,4421,537,7,410
445,291,4555,444,54,495
431,618,4539,360,118,540
273,630,4332,308,164,535
108,456,4046,282,172,512
2,96,3829,306,131,476
-11,-120,3855,292,70,496
88,113,4132,299,20,534
258,417,4215,379,18,518
376,344,4247,408,36,488
323,210,4298,360,79,518
257,482,4354,390,123,561
282,909,4126,539,168,533
253,1091,3729,582,162,461
233,1064,3798,483,104,417
269,1021,4131,379,75,414
337,1048,4069,336,93,430
355,1062,3996,280,98,452
349,915,4106,234,99,460
251,763,4046,226,129,476
157,874,3881,198,153,513
116,1173,3912,164,143,522
129,1383,4013,171,140,464
122,1429,4023,213,156,371
93,1554,4025,232,174,299
39,1562,3932,249,195,225
-56,1314,3806,247,198,164
-115,1167,3765,215,182,172
-153,1254,3737,170,163,219
-138,1450,3704,132,144,245
-97,1642,3801,123,123,216
-101,1590,3795,128,125,143
-222,1295,3598,122,128,85
-295,1151,3349,80,97,92
-247,1132,3373,47,34,109
-182,1250,3476,68,-7,97
-159,1292,3413,71,-11,65
-150,1212,3344,57,-23,33
-203,1043,3205,20,-48,27
-269,947,3127,-29,-89,72
-201,1067,3085,-61,-137,122
-109,1063,3054,-69,-182,116
-45,892,3028,-59,-223,94
33,846,2972,-47,-257,95
110,777,3073,-60,-295,78
111,587,3230,-49,-314,41
107,385,3140,14,-318,8
173,255,3129,34,-337,15
226,285,3303,49,-355,48
150,447,3283,64,-341,82
66,638,3014,-2,-335,111
23,650,3141,-73,-392,113
-49,714,3178,-14,-451,92
-25,675,3095,-79,-499,96
138,726,3486,-121,-568,110
359,1052,3700,-92,-597,112
411,927,3589,-113,-592,71
348,404,3443,-219,-609,78
386,-45,3600,-367,-647,165
481,-151,3923,-324,-669,241
582,283,4111,-219,-639,287
601,705,4152,-158,-576,265
546,823,3857,-36,-536,162
581,702,3760,-35,-558,95
687,416,4053,-91,-594,79
687,416,4053,-91,-594,79
656,270,4228,-158,-584,124
664,347,4235,-231,-567,190
747,465,4480,-237,-577,212
816,615,4606,-179,-566,208
897,683,4601,-198,-533,209
952,552,4760,-193,-506,189
904,435,4743,-154,-457,168
895,404,4784,-148,-421,172
892,339,4885,-129,-389,174
813,395,4930,-156,-348,197
768,691,4885,-178,-321,217
796,949,4985,-202,-298,185
847,971,4839,-234,-274,120
917,808,4986,-264,-293,89
960,843,5045,-287,-280,109
972,761,4986,-365,-250,135
987,836,4955,-276,-262,114
1104,680,5169,-171,-270,85
1348,632,5514,-133,-201,100
1346,922,5396,-59,-77,92
1242,1266,5242,-51,22,51
1139,1436,5103,0,92,-55
1027,1367,4797,35,143,-167
995,1251,4698,-3,157,-216
976,1376,4713,-49,167,-216
998,1450,4586,-93,190,-219
1012,1230,4499,-138,200,-231
978,1103,4459,-213,217,-198
961,1287,4420,-264,247,-155
948,1463,4301,-251,288,-184
846,1359,3943,-236,320,-263
758,1171,3655,-237,308,-327
753,1076,3550,-260,270,-363
773,1071,3547,-311,233,-387
778,972,3509,-338,212,-429
714,772,3400,-353,193,-460
686,732,3374,-377,162,-453
772,764,3465,-383,140,-463
709,674,3484,-380,145,-492
604,785,3252,-390,155,-494
542,838,3052,-389,125,-538
480,634,2950,-433,71,-602
465,370,3017,-499,6,-628
534,281,3069,-549,-47,-608
594,179,3034,-547,-90,-606
602,103,3051,-567,-128,-598
634,133,3010,-568,-157,-594
592,95,2981,-558,-187,-625
550,-86,2953,-557,-219,-663
485,-327,2861,-570,-253,-678
361,-372,2850,-587,-305,-655
348,-353,2976,-589,-368,-636
394,-435,2961,-562,-421,-644
381,-650,2934,-531,-488,-648
447,-787,2967,-514,-566,-615
509,-659,3144,-523,-635,-553
538,-436,3280,-518,-681,-524
686,-412,3259,-481,-727,-555
948,-625,3472,-467,-794,-585
1289,-764,3970,-380,-841,-588
1343,-969,4129,-340,-799,-578
1241,-1088,4102,-444,-700,-491
1171,-851,3831,-416,-639,-430
1093,-912,3559,-378,-647,-444
1005,-1249,3359,-421,-706,-418
1102,-1471,3454,-513,-795,-322
1189,-1626,3773,-549,-867,-224
1285,-1671,3978,-541,-873,-146
1331,-1984,3945,-415,-848,-133
1331,-1984,3945,-415,-848,-133
1320,-2221,3856,-270,-830,-88
1446,-2071,3992,-177,-822,4
1555,-1824,4223,-83,-781,47
1582,-1597,4217,43,-718,44
1615,-1534,4112,118,-675,44
1655,-1704,4130,109,-648,73
1557,-1975,4150,136,-636,140
1598,-1816,4251,211,-626,263
1562,-1858,4011,339,-590,317
1516,-2118,3615,477,-634,391
1661,-1889,4048,512,-715,522
1811,-1458,4614,586,-697,586
1943,-1080,4641,733,-595,578
2004,-777,4556,818,-499,538
1987,-721,4541,841,-423,492
2030,-797,4482,875,-374,477
2113,-848,4590,865,-342,519
2145,-715,4644,855,-299,610
2098,-538,4400,855,-251,681
2055,-445,4373,856,-288,735
2188,-148,5019,815,-301,792
2275,145,5265,805,-195,812
2290,269,5061,825,-64,794
2262,267,4719,823,18,769
2207,53,4596,799,52,742
2190,-99,4615,783,82,760
2287,36,4804,814,126,803
2484,518,5065,832,213,860
2578,1062,5032,808,342,867
2487,1204,4843,778,460,784
2309,1070,4758,735,544,695
2150,989,4697,721,612,637
1974,850,4438,694,681,613
1797,723,4079,652,709,635
1672,965,3787,622,683,681
1577,1492,3686,535,631,706
1663,1863,3902,443,579,641
1756,1845,4033,377,577,514
1613,1636,3954,257,604,437
1530,1399,3791,155,623,406
1459,1205,3720,96,627,392
1385,1256,3604,77,635,382
1412,1346,3425,100,636,321
1430,1196,3400,112,623,239
1379,1033,3150,99,620,202
1317,949,2669,34,578,204
1259,865,2652,-85,463,216
1224,943,2888,-170,367,218
1210,896,2868,-184,321,166
1164,562,2775,-196,278,105
1134,293,2750,-210,223,101
1226,229,2857,-194,165,123
1335,248,3083,-173,125,139
1299,424,3230,-153,125,142


400,-755,4310,400,-118,301
460,-814,4369,415,-101,330
523,-692,4392,430,-69,379
560,-368,4530,451,-29,405
484,-152,4341,471,35,388
365,-230,4004,437,64,375
312,-465,3990,384,30,390
302,-544,4181,358,7,432
366,-320,4229,383,16,472
395,-71,4229,408,32,480
406,42,4152,401,47,468
387,-232,4163,402,49,442
312,-476,4204,434,55,469
314,-213,4121,452,70,550
307,164,4003,442,82,579
310,362,3949,409,69,547
361,362,4125,379,44,496
426,191,4482,366,57,472
371,-31,4500,436,147,491
260,301,3932,464,200,580
251,702,3731,340,150,630
171,672,4061,220,91,597
88,419,4039,278,87,528
92,268,3814,372,77,490
209,506,3911,361,44,507
398,770,4207,363,24,494
398,770,4207,363,24,494
485,796,4519,372,59,465
401,716,4407,386,143,458
226,866,4062,373,201,479
203,1127,3969,363,196,458
249,1178,3981,477,166,353
267,1048,3918,470,163,288
232,1181,3995,396,152,295
313,1602,4136,374,149,287
309,1626,4130,340,173,230
201,1469,4034,280,197,204
103,1396,3864,226,204,219
-16,1239,3632,152,189,247
-116,1314,3521,93,137,286
-57,1533,3528,78,78,283
44,1498,3648,58,31,232
100,1411,3793,8,15,203
87,1375,3886,-27,27,187
30,1425,3818,-11,47,152
48,1460,3735,20,54,96
29,1305,3750,2,48,53
-62,1171,3741,-22,52,53
-163,1130,3502,-21,52,58
-212,1001,3280,-54,9,64
-211,928,3259,-113,-63,89
-160,975,3296,-156,-129,103
-98,911,3358,-156,-179,71
-31,671,3407,-128,-205,17
10,403,3320,-97,-216,-5
53,320,3246,-90,-231,20
140,480,3280,-117,-257,65
193,692,3386,-143,-275,71
213,767,3383,-137,-278,31
203,674,3343,-116,-284,-18
169,388,3104,-76,-310,-49
166,133,3054,-98,-370,-15
192,183,3166,-119,-422,41
226,267,3190,-120,-444,59
265,204,3121,-163,-466,58
303,-33,3370,-199,-506,69
328,31,3605,-102,-519,85
278,195,3410,-23,-496,88
227,238,3242,-39,-500,90
243,143,3300,-29,-547,83
235,115,3360,-69,-589,119
309,356,3351,-136,-628,180
460,450,3447,-198,-681,198
548,367,3629,-283,-719,207
