acc_X,acc_Y,acc_Z,gyro_X,gyro_Y,gyro_Z
211,-301,4883,229,600,53
150,-189,4839,254,635,70
72,-87,4709,267,663,71
23,-95,4587,267,673,66
16,-210,4531,249,662,77
-20,-258,4537,206,650,126
-56,-117,4530,193,649,179
-87,-43,4487,207,657,193
-164,-223,4364,195,673,186
-262,-442,4148,159,689,216
-341,-561,3956,146,673,277
-343,-627,3849,182,628,331
-318,-561,3845,219,584,384
-265,-429,3889,253,562,417
-234,-413,3853,262,562,437
-267,-494,3795,243,563,467
-335,-516,3667,260,559,509
-394,-520,3534,261,546,551
-465,-445,3418,229,519,598
-447,-199,3464,235,484,627
-472,100,3356,365,436,588
-445,-69,3260,345,396,541
-318,-201,3283,281,347,565
-252,-94,3336,258,296,624
-293,35,3250,239,271,668
-293,35,3250,239,271,668
-338,16,3110,200,236,697
-329,-156,3047,171,186,729
-342,-259,2978,190,136,774
-358,-159,2893,236,86,827
-312,36,2816,271,33,865
-308,72,2700,279,-20,883
-326,-69,2608,235,-86,922
-290,-85,2572,227,-164,994
-302,81,2514,303,-249,1044
-343,283,2632,400,-322,1066
-388,644,2651,508,-377,1074
-407,976,2646,600,-435,1037
-428,1095,2567,599,-492,985
-420,1165,2485,532,-568,968
-301,1368,2536,489,-679,960
-91,1583,2882,466,-797,940
4,1684,3268,413,-854,917
-24,1661,3379,322,-849,914
-85,1510,3126,231,-830,921
-215,1215,2871,135,-865,932
-255,1141,2903,97,-935,955
-289,1382,2877,153,-1003,947
-269,1904,2968,230,-1096,903
-123,2263,3196,270,-1184,806
12,2105,3293,230,-1241,691
113,1854,3343,128,-1292,647
203,1792,3511,54,-1350,649
315,1882,3708,23,-1393,642
442,2051,3870,5,-1411,611
534,2202,4157,38,-1403,533
602,2292,4191,89,-1350,427
686,2219,4063,130,-1317,324
824,2291,4109,121,-1323,267
984,2546,4339,66,-1338,223
1079,2729,4566,-18,-1334,155
1054,2447,4576,-149,-1303,75
974,1902,4407,-299,-1277,34
955,1627,4320,-347,-1291,42
1090,1782,4390,-291,-1315,37
1235,2062,4658,-209,-1311,-12
1340,2193,4647,-204,-1257,-80
1390,1969,4409,-260,-1226,-140
1496,1856,4369,-336,-1246,-170
1654,1975,4678,-372,-1273,-203
1760,1998,5005,-413,-1242,-252
1812,1975,5117,-457,-1161,-295
1806,2069,5061,-485,-1072,-336
1710,2048,4932,-534,-997,-399
1671,1813,4900,-574,-957,-470
1683,1567,4914,-552,-935,-533
1781,1570,5056,-532,-912,-577
1866,1523,5065,-512,-852,-636
1951,1614,4925,-456,-841,-674
2150,1936,5100,-457,-862,-717
2359,1938,5359,-528,-864,-795
2454,1457,5642,-634,-801,-864
2414,1041,5577,-680,-680,-866
2403,1057,5400,-675,-567,-842
2427,1000,5333,-687,-481,-847
2411,893,5333,-728,-394,-856
2297,735,5219,-734,-311,-877
2165,450,4977,-717,-244,-896
2122,137,4786,-686,-213,-889
2108,9,4734,-655,-208,-850
2162,72,4704,-668,-203,-803
2251,172,4791,-675,-199,-789
2403,224,4948,-665,-176,-805
2558,0,5075,-666,-120,-844
2662,-185,5238,-618,-46,-869
2710,-357,5390,-542,56,-864
2710,-357,5390,-542,56,-864
2703,-432,5430,-499,180,-815
2577,-393,5377,-456,302,-753
2432,-263,5246,-415,410,-704
2292,-319,5102,-402,495,-686
2156,-469,4994,-368,542,-657
2074,-648,4915,-328,572,-615
2009,-809,4950,-284,591,-554
2034,-608,5082,-176,617,-487
2081,-438,5090,-32,677,-494
2059,-611,4942,51,753,-531
2038,-729,4734,85,800,-505
2013,-674,4658,86,803,-434
2007,-490,4786,68,798,-351
2050,-205,4903,51,818,-288
1988,-165,4902,6,874,-278
1812,-410,4802,-40,951,-282
1614,-652,4729,9,1017,-270
1536,-603,4548,97,1092,-234
1322,-668,4007,122,1112,-221
1230,-673,4140,256,1043,-185
1306,-378,4056,195,1041,-117
1218,-636,3762,90,1021,-103
1140,-865,3740,57,951,-42
1132,-739,3852,51,896,46
1082,-558,3942,49,874,111
1039,-401,3973,71,875,152
940,-414,3892,88,883,175
850,-457,3824,106,882,207
822,-497,3742,150,877,240
793,-637,3632,210,873,272
788,-720,3589,301,858,318
818,-661,3485,365,854,372
800,-723,3455,424,837,409
762,-535,3474,482,825,470
665,-228,3302,519,818,504
531,-247,3157,535,783,499
464,-270,3230,557,722,510
532,-72,3343,583,667,552
540,89,3357,547,641,596
498,125,3308,512,616,622
513,134,3352,486,576,651
542,265,3442,491,539,682
572,350,3413,490,516,700
565,352,3430,450,491,731
518,420,3362,435,467,769
470,643,3244,424,427,796
476,995,3315,402,366,796
546,1198,3501,406,313,745
586,1082,3592,362,301,693
527,919,3533,277,312,710
416,889,3293,216,311,768
282,881,3057,160,273,821
197,1012,2934,133,201,864
235,1186,2923,143,113,864
263,1232,3008,124,31,837
239,1412,3108,88,-33,827
220,1591,3100,53,-83,795
173,1422,2998,-2,-131,743
64,1265,2973,-88,-210,737
36,1622,3201,-140,-315,765
121,2056,3484,-108,-391,709
143,2014,3691,-87,-411,573
175,2006,3925,-48,-416,472
298,2225,4136,37,-418,392
362,2333,4259,49,-396,305
327,2304,4343,-13,-375,243
319,2344,4431,-87,-376,214
388,2444,4515,-168,-387,183
388,2444,4515,-168,-387,183
419,2425,4660,-275,-397,143
432,2257,4790,-355,-403,109
459,2054,4744,-425,-397,88
486,1883,4793,-488,-413,67
477,1747,5073,-481,-441,48
524,1668,5094,-473,-408,36
595,1450,4945,-472,-365,2
686,1238,4940,-432,-354,-16
809,1214,5022,-405,-335,-16
964,1220,5069,-408,-291,-35
977,1136,5046,-399,-232,-71
924,1112,4990,-353,-178,-105
1001,1147,4915,-280,-133,-153
1146,1029,4813,-244,-93,-221
1216,767,4699,-293,-59,-263
1195,424,4596,-318,-49,-262
1194,292,4643,-318,-51,-204
1212,289,4723,-285,-32,-144
1167,330,4759,-244,15,-107
1072,420,4684,-225,83,-93
959,470,4585,-183,143,-113
901,508,4549,-116,188,-159
869,517,4614,-48,225,-210
868,578,4684,12,273,-238
875,588,4640,22,339,-255
880,507,4557,11,396,-270
904,421,4480,-22,434,-255
827,363,4383,-75,452,-210
632,356,4276,-155,456,-139
562,469,4175,-180,430,-79
583,589,4117,-198,382,-50
523,680,4129,-232,327,-45
491,793,4138,-232,268,-66
446,810,4196,-285,212,-98


-272,-196,4394,384,431,-67
-276,-388,4380,398,440,-63
-203,-351,4371,410,456,-17
-134,-197,4314,466,467,7
-86,-181,4297,472,477,11
-66,-280,4354,450,488,22
-109,-234,4336,431,512,57
-141,-192,4226,431,532,80
-182,-181,4126,435,532,102
-235,-62,4016,457,519,125
-288,102,3875,481,487,124
-298,93,3790,479,439,99
-292,-128,3839,425,381,93
-248,-168,3990,357,339,152
-160,210,4099,345,311,220
-91,507,4177,310,307,234
-66,400,4162,306,314,191
-124,116,4212,292,318,169
-174,-21,4204,267,339,202
-218,-67,4112,247,356,248
-307,-71,4046,275,354,275
-396,12,4010,325,341,296
-400,175,3936,359,322,315
-380,328,3881,344,295,328
-342,379,3896,329,264,328
-274,197,3873,347,240,305
-225,-255,3936,272,218,334
-188,-475,3947,235,211,429
-157,-544,3845,229,214,535
-107,-434,3849,239,202,643
-80,-208,3896,344,194,691
-128,-162,3788,486,209,668
-221,-346,3590,588,222,636
-278,-386,3431,683,209,639
-285,-73,3340,777,174,662
-219,333,3373,822,142,670
-191,680,3333,808,130,664
-188,839,3142,739,107,671
-160,869,3197,615,66,694
-207,584,3116,505,51,728
-303,357,2812,434,22,796
-414,226,2602,366,-44,869
-475,163,2553,378,-149,899
-514,212,2546,439,-252,914
-490,398,2501,479,-346,921
-449,584,2767,551,-454,903
-312,875,3390,682,-484,876
-239,1054,3192,791,-417,855
-281,1258,2717,753,-426,893
-268,1669,2726,623,-530,961
-192,1869,3073,492,-624,970
-192,1869,3073,492,-624,970
-135,1711,3161,426,-661,938
-165,1615,3023,373,-707,935
-111,1663,3184,331,-774,940
44,1681,3341,354,-816,902
119,1598,3473,386,-828,855
188,1606,3466,419,-829,833
363,1846,3580,418,-848,832
432,2156,4070,382,-828,815
357,2228,3808,420,-769,769
251,2113,3418,371,-773,742
166,1940,3349,254,-840,742
157,1977,3458,179,-917,757
208,2335,3576,173,-987,748
292,2690,3744,145,-1047,685
396,2946,3973,110,-1098,598
556,2995,4204,70,-1129,500
686,2845,4414,33,-1128,418
748,2617,4669,41,-1092,365
781,2490,4676,65,-1014,356
772,2720,4387,92,-954,364
741,3062,4147,45,-944,337
816,3257,4165,-17,-981,252
986,3095,4341,-86,-1019,139
1015,2942,4566,-198,-1022,78
972,2917,4606,-209,-988,21
918,2675,4386,-178,-952,-58
860,2557,4168,-169,-955,-115
945,2594,4126,-196,-993,-156
1114,2472,4234,-262,-1031,-197
1268,2315,4319,-304,-1047,-208
1373,2387,4363,-395,-1039,-184
1408,2476,4320,-493,-1031,-175
1432,2574,4406,-540,-1037,-209
1447,2567,4508,-585,-1016,-286
1421,2324,4464,-591,-971,-381
1392,2080,4421,-548,-932,-453
1438,2105,4409,-478,-909,-497
1504,2025,4323,-400,-894,-563
1573,1865,4280,-392,-893,-616
1683,1691,4426,-394,-902,-660
1859,1500,4685,-357,-880,-704
1917,1330,4814,-359,-803,-717
1866,1433,4780,-377,-714,-689
1859,1599,4661,-425,-641,-678
1838,1631,4633,-507,-595,-692
1793,1674,4641,-562,-565,-714
1720,1613,4574,-565,-541,-764
1678,1300,4472,-540,-539,-827
1737,915,4533,-532,-562,-847
1924,839,4809,-495,-580,-805
2203,1020,5106,-457,-548,-758
2482,1065,5313,-440,-466,-751
2640,951,5427,-459,-350,-747
2649,915,5475,-464,-222,-734
2628,994,5426,-468,-95,-730
2537,897,5332,-509,15,-744
2414,668,5289,-539,105,-752
2304,461,5248,-522,181,-740
2220,333,5254,-492,253,-707
2173,265,5029,-452,326,-670
2120,344,4911,-446,366,-626
2140,305,4966,-451,408,-614
2154,58,5010,-440,469,-610
2091,-200,4866,-427,543,-572
1990,-248,4690,-440,595,-492
1919,-184,4523,-470,624,-417
1890,-104,4534,-501,622,-372
1835,-66,4733,-459,627,-372
1699,-37,4745,-350,681,-395
1549,-102,4563,-236,738,-427
1411,-232,4375,-173,766,-429
1411,-232,4375,-173,766,-429
1375,-369,4264,-140,761,-389
1364,-488,4244,-129,747,-316
1372,-412,4369,-129,739,-216
1467,-193,4466,-67,752,-144
1530,-92,4493,-9,791,-117
1480,-62,4494,24,843,-94
1361,3,4415,60,904,-65
1252,15,4226,114,959,-61
1118,-159,4011,136,990,-56
965,-303,3853,133,990,-2
858,-295,3756,164,958,68
754,-150,3738,228,917,133
683,-12,3667,281,888,166
679,-39,3554,347,853,166
711,-208,3522,408,806,170
765,-373,3631,439,762,214
774,-291,3760,492,741,288
790,33,3745,569,744,356
760,244,3610,620,751,376
684,252,3523,618,740,381
605,192,3486,616,719,398
530,238,3428,674,693,415
482,350,3331,746,663,434
453,329,3190,760,629,458
434,304,3210,754,570,501
458,493,3293,775,516,556
543,731,3412,820,478,580
681,983,3556,855,457,585
827,1136,3668,878,468,567
867,1085,3721,883,502,550
787,1196,3607,908,551,558
622,1374,3337,940,588,551
443,1417,2986,954,583,527
327,1309,2698,924,534,522
215,1287,2605,910,445,542
205,1410,2586,905,350,575
313,1454,2638,878,265,605
350,1593,2813,828,188,658
362,1988,2914,767,152,711
341,2125,2880,707,137,694
227,2089,2851,672,114,650
125,2181,2772,675,78,607
100,2199,2789,693,18,556
178,2228,2953,726,-35,521
236,2364,3050,714,-66,526
285,2664,3142,661,-90,552
248,2851,3161,572,-100,554
127,2978,3070,461,-116,539
43,3068,2954,382,-169,498
85,3016,3044,301,-256,437
260,2907,3384,219,-338,398
439,2860,3703,165,-373,391
546,3095,3946,110,-366,399
591,3298,4083,65,-331,367
550,3359,4116,39,-293,300
516,3421,4101,32,-268,222
562,3348,4030,-9,-261,145
677,3119,4129,-94,-279,97
798,2894,4273,-201,-291,102
823,2789,4415,-324,-287,146
750,2763,4473,-419,-256,186
669,2785,4402,-454,-222,192
628,2788,4309,-432,-208,151
672,2727,4253,-405,-208,85
668,2611,4237,-399,-217,17
707,2445,4191,-397,-226,-41
897,2179,4188,-445,-234,-67
1091,1912,4305,-538,-242,-50
1217,1731,4521,-616,-228,-1
1217,1731,4521,-616,-228,-1
1288,1676,4720,-661,-169,62
1332,1775,4715,-658,-73,108
1244,1929,4648,-671,26,121
1123,2163,4498,-637,103,91
1083,2209,4355,-666,163,31
1022,2101,4226,-665,194,-57


-362,-604,4230,531,275,193
-367,-466,4213,657,244,275
-371,-375,4188,710,244,302
-374,-318,4208,761,242,321
-308,-212,4289,776,251,359
-266,-93,4328,792,278,396
-309,2,4244,818,321,422
-354,141,4076,832,353,455
-382,255,3834,813,354,471
-431,362,3678,788,304,479
-418,520,3769,820,229,460
-345,445,3827,834,181,408
-327,289,3932,816,149,389
-335,298,3927,807,138,416
-329,357,3910,784,141,457
-293,330,3914,761,145,486
-298,262,3981,728,157,528
-356,322,3948,743,193,583
-461,407,3767,763,230,616
-574,500,3613,809,231,617
-615,592,3482,898,203,587
-616,776,3378,901,167,564
-634,823,3238,877,112,531
-585,724,3226,846,37,515
-463,496,3336,796,-23,532
-463,496,3336,796,-23,532
-357,177,3451,765,-53,580
-312,38,3476,742,-51,676
-341,148,3315,760,-56,777
-361,580,3073,814,-107,849
-334,987,3276,882,-199,867
-222,1301,3833,994,-200,831
-235,1333,3542,1097,-113,772
-333,1466,2915,1128,-108,762
-294,1636,2755,1085,-219,761
-185,1588,3107,943,-330,758
-133,1461,3409,814,-362,773
-82,1241,3398,807,-343,778
-42,1042,3258,778,-335,816
32,912,3241,751,-356,908
139,1101,3246,747,-388,1013
197,1455,3501,782,-407,1086
227,1716,3552,889,-362,1093
157,2017,3297,958,-311,1083
48,2381,2999,1005,-320,1053
43,2795,2779,937,-378,1006
134,2964,3105,804,-436,890
114,2464,2914,830,-473,732
99,2117,2671,846,-563,698
183,2019,2739,753,-676,744
309,1922,2981,613,-758,818
411,1820,3204,591,-811,897
498,1850,3312,602,-815,988
544,2337,3383,569,-789,1090
570,3468,3341,618,-769,1122
670,4441,3205,657,-765,988
727,4489,3101,558,-785,743
732,3992,3229,351,-820,537
686,3264,3513,182,-838,417
592,2738,3467,93,-822,399
495,2420,3212,46,-819,439
485,2412,3081,7,-870,512
622,2810,3218,-43,-939,581
815,3209,3426,-47,-990,569
935,3470,3591,-91,-1004,515
986,3925,3719,-185,-994,465
1061,4036,3745,-274,-973,344
1055,3561,3826,-387,-953,200
973,3058,3901,-462,-920,131
886,2899,3660,-471,-898,129
852,3080,3449,-528,-916,143
848,3311,3360,-589,-972,109
956,3393,3510,-642,-1050,39
1098,3290,3740,-709,-1096,-28
1239,3137,3918,-790,-1114,-70
1374,3007,4092,-885,-1107,-78
1413,2864,4140,-989,-1070,-78
1427,2688,4040,-1069,-1031,-89
1454,2490,3910,-1120,-1027,-114
1561,2477,3978,-1162,-1058,-132
1673,2621,4264,-1191,-1075,-173
1746,2647,4132,-1138,-1063,-260
1882,2666,4208,-1095,-1090,-369
1990,2528,4545,-1110,-1087,-482
1963,2275,4601,-1128,-1023,-559
1982,2067,4496,-1138,-969,-594
2038,1696,4494,-1199,-931,-604
2097,1359,4470,-1248,-908,-568
2186,1290,4598,-1262,-903,-514
2371,1342,4833,-1236,-878,-499
2556,1350,5002,-1199,-818,-525
2727,1391,5163,-1172,-736,-561
2933,1376,5326,-1156,-629,-610
3013,1178,5449,-1176,-499,-671
3013,1178,5449,-1176,-499,-671
2878,1024,5636,-1225,-345,-687
2701,1001,5544,-1240,-160,-688
2483,862,5175,-1240,-2,-705
2291,615,4919,-1212,77,-718
2207,348,4841,-1101,108,-724
2175,139,4903,-965,125,-717
2199,87,5066,-819,159,-687
2398,12,5061,-653,224,-671
2560,-182,5079,-587,299,-650
2586,-398,5207,-537,379,-603
2551,-391,5299,-509,493,-525
2413,-103,5272,-523,630,-442
2188,355,5037,-501,757,-408
2018,591,4700,-426,837,-462
1870,360,4471,-351,856,-564
1685,-29,4367,-365,837,-599
1645,-123,4420,-378,814,-561
1666,-113,4554,-380,812,-509
1639,-115,4551,-379,840,-447
1603,-208,4430,-376,875,-384
1527,-267,4388,-358,888,-306
1484,-51,4428,-274,897,-236
1452,195,4391,-176,923,-221
1385,231,4215,-121,956,-247
1315,42,3974,-103,965,-268
1185,-188,3819,-136,937,-246
1082,-220,3761,-177,891,-179
1061,-161,3821,-180,842,-123
1042,-124,3871,-161,813,-83
995,-132,3939,-168,800,-35
961,-77,3967,-126,801,11
935,-51,3972,-54,801,42
908,42,4015,24,805,65
860,48,3951,87,825,79
814,-4,3863,115,838,117
775,127,3827,165,831,168
761,254,3750,208,821,198
710,349,3716,242,799,204
676,368,3641,265,780,199
675,237,3573,270,747,194
630,136,3643,277,702,224
640,114,3690,284,677,282
631,105,3683,297,659,342
574,102,3609,305,643,405
551,58,3508,325,623,451
476,57,3461,369,591,483
392,229,3398,413,557,514
343,430,3348,435,513,525
363,533,3351,475,460,508
431,458,3359,494,413,495
532,276,3458,477,370,518
628,243,3651,459,346,588
675,491,3765,457,360,666
588,909,3710,462,401,699
449,1230,3468,475,431,664
310,1226,3235,492,410,577
204,1091,3166,498,341,512
248,1023,3188,498,262,498
364,937,3276,471,193,511
451,939,3421,401,146,567
487,1118,3512,350,131,626
506,1328,3528,331,127,655
515,1415,3461,309,129,663
512,1400,3467,254,111,682
501,1621,3643,183,84,729
487,1843,3679,142,87,731
382,1798,3577,104,92,689
219,1770,3464,82,73,653
166,1870,3393,77,33,614
166,1870,3393,77,33,614
196,1933,3438,75,-25,546
150,1940,3560,74,-85,481
151,1949,3586,40,-133,452
206,1816,3639,-57,-179,460
277,1698,3786,-128,-234,485
309,1938,4060,-196,-276,528
407,2310,4249,-232,-271,515
508,2092,4251,-214,-244,395
478,1703,4273,-225,-233,327
436,1871,4428,-247,-229,351
472,2305,4608,-191,-208,327
497,2337,4545,-166,-166,215
447,1965,4475,-154,-159,103
485,1729,4532,-124,-173,79
599,1680,4556,-138,-185,108
700,1596,4610,-212,-189,145
710,1612,4692,-303,-182,191
692,1819,4728,-356,-159,207
687,1782,4613,-342,-129,139
685,1495,4451,-310,-122,51
670,1262,4414,-324,-141,19
699,1220,4482,-340,-160,22
723,1300,4605,-326,-160,4
765,1304,4677,-263,-141,-55
839,1207,4736,-181,-111,-128
845,1132,4766,-115,-64,-172
811,1133,4703,-87,-7,-184
838,1158,4699,-72,42,-193
834,1150,4605,-47,96,-223
828,747,4811,-331,177,-157
750,873,4733,-207,244,-108
747,1236,4484,-33,278,-96
761,1229,4475,-44,292,-112
763,1023,4442,6,296,-160
703,869,4410,9,308,-158


-194,-172,4058,1001,13,532
-239,74,4021,940,42,600
-271,511,3860,887,71,642
-279,637,3661,809,70,612
-289,470,3515,753,34,553
-229,113,3523,720,-14,519
-128,-300,3592,696,-59,531
-127,-342,3811,672,-78,620
-189,14,3898,738,-50,702
-201,420,3701,893,-19,700
-199,778,3400,968,-37,660
-198,1031,3830,971,-102,613
-174,958,4300,1050,-56,555
-294,675,3684,1134,27,539
-443,776,2998,1052,-9,643
-477,1182,2874,890,-157,734
-390,1397,3327,775,-319,706
-206,1263,3787,773,-392,609
-55,957,4004,769,-379,563
-38,824,3975,735,-339,609
-77,813,3858,673,-304,688
-127,845,3992,707,-290,752
-167,1231,3960,825,-246,801
-220,1800,3618,925,-215,788
-187,2215,3372,937,-254,719
-57,2014,3372,831,-319,620
-32,1647,3724,700,-378,565
-126,1469,3861,738,-359,537
-242,1597,3210,830,-349,537
-249,1751,2959,807,-449,538
-29,1634,3213,712,-573,541
241,1343,3658,616,-647,595
328,1341,4002,576,-648,705
344,2142,4079,568,-604,814
347,3207,4077,546,-556,796
338,3503,3969,470,-509,607
253,2787,3877,393,-487,375
120,1928,3732,366,-484,265
98,1733,3514,355,-503,296
102,1917,3329,326,-560,360
166,1995,3187,225,-635,410
205,1915,3337,85,-735,442
214,1919,3662,29,-799,451
213,1966,3659,58,-810,426
268,2165,3570,84,-831,391
430,2457,3627,86,-868,332
595,2427,3739,21,-888,250
690,2245,3920,-77,-891,196
665,2225,4066,-125,-873,171
618,2378,4019,-137,-846,148
576,2545,3889,-169,-834,114
554,2492,3743,-203,-847,53
559,2129,3694,-249,-889,5
596,2000,3769,-313,-945,28
683,2129,3901,-377,-987,53
743,2309,4125,-416,-1000,44
811,2504,4076,-364,-994,-18
901,2431,4012,-371,-998,-108
982,2307,4089,-444,-1013,-156
1033,2261,4121,-527,-1019,-173
1098,2210,4112,-624,-1027,-176
1194,2107,4122,-718,-1045,-178
1274,1992,4298,-814,-1066,-175
1338,1917,4510,-857,-1063,-181
1358,1957,4564,-867,-1023,-204
1378,2203,4614,-837,-985,-258
1378,2203,4614,-837,-985,-258
1472,2411,4696,-781,-946,-363
1542,2312,4604,-750,-891,-503
1556,1992,4451,-770,-857,-611
1661,1665,4535,-807,-857,-654
1730,1377,4540,-820,-866,-624
1792,1565,4579,-878,-878,-534
1914,1633,4685,-979,-872,-500
2033,1579,4940,-1008,-845,-530
2056,1532,5040,-941,-780,-595
2028,1619,5068,-931,-686,-670
2024,1493,5004,-950,-575,-778
2040,1102,4893,-914,-495,-876
2001,875,4777,-926,-443,-879
1990,734,4600,-984,-409,-839
2073,528,4586,-1010,-413,-810
2200,390,4765,-966,-425,-789
2358,261,4941,-923,-389,-770
2421,214,5108,-933,-312,-726
2400,296,5159,-956,-212,-680
2368,205,5124,-1018,-105,-661
2294,-72,5174,-1044,-8,-657
2172,-267,5197,-990,94,-652
2065,-469,5092,-863,196,-655
2050,-652,4981,-700,264,-656
2036,-583,5093,-566,310,-615
2020,-306,5134,-435,373,-580
2055,-138,4989,-373,449,-576
2112,-241,4857,-379,495,-584
2158,-594,4838,-425,519,-565
2139,-807,5003,-453,545,-486
2119,-614,5184,-416,605,-386
2060,-329,5059,-369,706,-321
1960,-329,4725,-363,796,-304
1815,-549,4491,-353,823,-298
1643,-636,4417,-324,817,-263
1518,-492,4395,-241,804,-231
1484,-342,4426,-159,796,-233
1439,-296,4496,-109,800,-252
1388,-332,4536,-108,826,-239
1336,-420,4551,-103,864,-210
1200,-561,4505,-102,905,-153
1073,-566,4360,-75,942,-60
977,-424,4141,-6,956,17
842,-149,4022,48,937,61
793,194,3972,96,902,58
824,124,3911,150,866,-11
837,-291,3911,165,828,-52
840,-545,3934,126,797,9
899,-561,3963,80,777,117
908,-572,4014,64,770,199
821,-479,4133,100,776,260
776,-81,4157,195,799,299
719,339,4030,287,830,291
630,353,3815,342,838,221
462,26,3685,367,808,162
345,-209,3591,379,754,172
383,-345,3523,373,692,226
451,-357,3552,365,623,294
576,-267,3725,356,561,364
642,-233,3916,339,541,419
580,-154,3926,366,556,470
518,-58,3725,418,581,502
476,115,3681,464,569,509
476,498,3853,555,545,478
459,618,3811,629,557,398
362,341,3702,605,564,349
236,247,3628,578,540,392
181,315,3497,557,501,459
186,358,3486,540,440,520
231,541,3587,552,379,569
231,541,3587,552,379,569
285,648,3635,566,348,585
292,481,3674,561,328,580
258,331,3691,564,316,605
241,441,3591,579,309,656
258,667,3540,594,286,684
286,845,3566,631,265,660
272,832,3601,692,259,597
231,930,3613,784,256,545
245,1247,3505,842,257,515
265,1327,3384,815,240,486
212,1247,3366,742,201,496
134,1338,3338,657,158,551
91,1570,3223,569,113,595
95,1689,3222,486,47,596
154,1605,3340,435,-11,568
163,1399,3490,411,-48,536
136,1611,3598,425,-61,536
148,2035,3542,448,-65,498
146,2014,3479,432,-84,407
135,1733,3531,395,-119,351
166,1571,3631,356,-155,358
223,1579,3766,313,-179,396
251,1640,3800,262,-179,439
257,1679,3793,212,-182,475
226,1936,3929,179,-199,489
204,2286,4035,227,-194,424
180,2174,4002,294,-178,287
170,1875,3982,328,-184,201
237,1683,3940,324,-199,192
241,1677,4009,270,-222,237
239,2081,4115,236,-235,283
279,2249,4061,218,-236,243
371,1761,3996,186,-251,176
452,1473,4174,128,-278,206
542,1675,4393,107,-277,262
538,1810,4435,130,-239,252
483,1834,4310,181,-201,202
456,1837,4138,204,-184,154
436,1776,4095,196,-199,110
435,1861,4189,177,-224,91
474,1944,4183,147,-229,76
517,1758,4184,80,-242,70
594,1571,4299,10,-262,103
656,1599,4444,-55,-261,158
693,1755,4590,-64,-238,174
710,1874,4581,-14,-194,132
719,1804,4505,3,-153,81
752,1631,4525,0,-133,46
731,1523,4589,-14,-113,41
693,1663,4575,-14,-77,54
711,1827,4436,-24,-47,37
767,1654,4427,-43,-55,3
858,1499,4581,-103,-58,17
918,1528,4711,-190,-30,56
919,1638,4694,-273,19,84
887,1662,4609,-345,63,87
803,1610,4566,-391,94,86
753,1609,4437,-398,112,89
732,1555,4297,-441,114,100
701,1327,4277,-535,96,121
702,1064,4295,-594,76,153
683,1022,4299,-618,66,201


671,1265,4421,-572,58,217
-117,-472,3879,841,82,396
-158,-748,3696,883,84,494
-130,-521,3627,940,72,576
-210,-146,3576,973,58,632
-299,306,3465,999,56,655
-292,466,3266,1064,26,593
-271,182,3230,1083,-22,517
-241,-238,3339,1029,-66,517
-204,-235,3453,1039,-89,585
-216,189,3422,1142,-96,632
-199,687,3212,1206,-110,625
-199,977,3173,1169,-166,595
-158,1033,3906,1123,-194,572
-111,1059,3945,1189,-102,576
-156,1046,3328,1240,-44,613
-208,1037,2919,1131,-96,703
-192,1214,3035,971,-203,804
-99,1553,3361,889,-294,844
8,1898,3665,875,-327,818
82,2217,3819,891,-324,738
66,2268,3781,844,-292,653
20,2016,3446,738,-275,602
-78,1608,3314,561,-321,604
-142,1355,3672,462,-366,648
-115,1113,3513,617,-361,667
-64,823,3092,769,-395,702
86,884,3024,819,-500,816
423,1506,3890,802,-553,923
499,2006,3779,1005,-488,895
509,2644,3187,1112,-473,840
545,2909,3152,950,-537,751
464,2605,3399,765,-601,649
347,2194,3442,683,-616,612
345,1974,3356,576,-616,640
338,1871,3286,547,-645,648
399,2133,3394,577,-693,652
588,2600,3568,629,-716,617
660,2802,3744,632,-703,535
626,2852,3792,606,-654,471
626,2852,3792,606,-654,471
549,2729,3508,575,-604,429
450,2477,3204,493,-618,434
440,2387,3210,372,-692,489
521,2538,3392,274,-767,542
612,2856,3488,219,-806,539
667,3117,3445,185,-824,472
772,3139,3371,143,-844,375
852,2876,3417,47,-870,301
892,2556,3644,-64,-882,293
911,2398,3768,-163,-860,345
858,2445,3702,-165,-848,381
810,2678,3664,-120,-855,353
782,2850,3629,-73,-867,264
804,2816,3466,-73,-878,166
891,2653,3355,-123,-923,106
989,2647,3533,-198,-992,92
1176,2954,3871,-266,-1030,92
1291,3286,4135,-337,-1017,45
1343,3375,4246,-386,-974,-53
1327,3319,4197,-447,-925,-141
1320,2947,4131,-545,-878,-209
1262,2318,3772,-596,-891,-205
1241,2362,3889,-723,-970,-84
1310,2804,4197,-797,-1000,-27
1390,3105,4085,-756,-1011,-98
1513,3093,4290,-787,-1031,-216
1633,2878,4516,-796,-1016,-333
1726,2596,4527,-836,-959,-411
1831,2195,4479,-897,-908,-448
1919,2069,4556,-935,-877,-432
1993,2178,4672,-959,-835,-416
2002,2145,4739,-971,-770,-444
1937,2058,4645,-928,-699,-498
1968,1902,4542,-888,-647,-558
2016,1710,4615,-871,-611,-605
2031,1660,4713,-853,-565,-634
2060,1711,4703,-822,-503,-674
2082,1587,4607,-816,-446,-736
2102,1227,4604,-783,-419,-788
2170,944,4688,-734,-402,-790
2331,819,4807,-723,-374,-748
2490,885,5101,-781,-320,-684
2478,1327,5428,-816,-225,-644
2477,1768,5498,-796,-90,-691
2466,1546,5321,-772,38,-818
2334,1041,5153,-779,123,-890
2253,750,5135,-767,177,-882
2235,605,5143,-766,232,-852
2222,345,5099,-759,291,-826
2118,37,5025,-764,348,-769
2060,-32,4971,-735,387,-687
2133,-77,4960,-685,412,-630
2218,-150,5099,-628,446,-577
2290,-136,5176,-541,511,-520
2323,-176,5164,-473,604,-466
2257,-16,5079,-418,687,-406
2166,315,5111,-322,778,-395
2062,301,4984,-213,889,-456
1907,105,4766,-107,977,-508
1725,-52,4449,-84,1035,-503
1552,-322,4208,-120,1047,-459
1399,-393,4156,-134,1010,-373
1313,-172,4165,-127,971,-272
1304,42,4125,-150,947,-205
1291,-7,4130,-218,927,-159
1205,-156,4173,-262,923,-99
1069,-217,4201,-235,933,-35
908,69,4085,-123,950,12
908,69,4085,-123,950,12
889,516,3872,-6,948,5
939,492,3856,43,912,-59
860,129,3949,19,888,-71
784,-47,3888,-3,887,2
741,-135,3789,-22,881,89
638,-116,3741,12,860,157
606,112,3697,92,833,210
617,357,3705,152,801,222
590,392,3737,159,780,226
509,284,3700,169,775,238
416,184,3587,231,761,251
388,217,3450,311,727,275
446,275,3389,332,682,311
489,377,3539,321,629,353
530,454,3687,345,605,374
520,303,3709,389,614,367
416,186,3646,459,626,384
347,255,3538,552,627,408
312,377,3465,654,611,416
262,672,3444,748,582,418
234,1153,3445,806,550,411
256,1411,3390,799,523,370
279,1240,3383,736,492,333
220,1037,3374,668,464,356
181,933,3248,625,438,413
166,836,3141,604,392,471
203,783,3162,593,333,539
275,953,3225,616,287,599
303,1160,3300,634,260,620
311,1413,3347,671,245,607
315,1584,3275,718,237,563
341,1621,3232,721,226,520
393,1619,3216,697,201,489
346,1565,3336,700,171,479
233,1590,3459,740,176,479
146,1513,3248,832,202,475
122,1547,2856,863,175,510
134,1704,2904,711,96,578
128,1780,3150,560,40,601
120,1674,3218,511,24,567
110,1448,3222,543,12,529
150,1404,3244,641,-5,528
197,1432,3212,698,-17,556
274,1571,3193,728,-38,598
336,2100,3322,739,-68,630
332,2659,3384,750,-75,589
306,2815,3304,756,-81,474
232,2708,3252,705,-106,387
194,2606,3207,602,-149,372
221,2401,3293,484,-207,398
260,2277,3393,390,-259,461
352,2416,3527,306,-297,532
453,2606,3688,268,-317,548
519,2663,3725,268,-312,508
534,2553,3717,261,-302,455
481,2579,3784,258,-301,421
432,2733,3732,271,-289,383
445,2924,3588,248,-297,339
527,2952,3722,160,-336,296
598,2823,4042,74,-361,261
630,2614,4152,14,-329,247
646,2449,4096,-30,-285,262
688,2607,4127,-70,-266,300
696,2796,4116,-104,-237,302
705,2649,4063,-116,-215,251
678,2323,4051,-93,-208,206
641,2385,3991,-72,-197,211
658,2599,3843,-49,-197,183
681,2599,3806,-29,-229,112
771,2540,3905,-106,-258,83
771,2540,3905,-106,-258,83
877,2362,3979,-223,-276,91
912,2095,4084,-373,-281,135
917,1966,4276,-451,-269,190
959,2145,4377,-469,-231,223
1015,2364,4428,-401,-179,187
988,2455,4317,-320,-126,105
946,2486,4218,-340,-90,46
995,2343,4121,-399,-76,2
1094,2124,4166,-483,-85,-4
1152,1930,4378,-580,-85,21
1191,1902,4437,-670,-54,72
1183,1955,4468,-763,-13,130
1201,1992,4407,-860,24,173
1225,1974,4330,-972,43,199
1220,1943,4319,-1070,47,211
1243,1929,4355,-1177,51,218
1198,1877,4434,-1311,64,222
1127,1888,4494,-1387,84,211
1064,1896,4500,-1409,111,175


-32,-1639,4820,583,-23,117
2,-1451,4767,711,135,85
-104,-1683,4605,705,195,96
-192,-1870,4475,760,233,129
-286,-1848,4190,840,248,186
-301,-1821,3987,826,233,267
-214,-1827,3988,905,179,300
-163,-1784,4109,989,140,332
-70,-1566,4292,1085,134,370
95,-1331,4409,1221,156,364
131,-1119,4484,1258,208,372
61,-912,4432,1252,272,399
61,-912,4432,1252,272,399
-65,-779,4245,1254,326,417
-261,-753,4015,1266,343,431
-430,-646,3769,1279,329,455
-468,-465,3490,1279,283,472
-393,-533,3409,1259,203,451
-310,-684,3553,1237,117,446
-194,-726,3770,1190,82,482
-164,-550,3881,1190,83,525
-190,-149,3860,1193,107,573
-278,137,3652,1217,124,572
-368,248,3476,1196,106,554
-379,257,3341,1122,64,557
-331,37,3239,1024,7,570
-321,-132,3303,944,-57,615
-309,130,3243,928,-116,678
-268,522,3067,890,-175,691
-215,572,3530,903,-246,635
-172,350,3852,1074,-202,566
-218,305,3285,1241,-133,559
-232,591,2822,1281,-184,605
-138,983,2969,1206,-309,650
0,1351,3392,1072,-396,681
26,1490,3695,964,-401,672
-76,1339,3510,893,-360,642
-225,1063,3211,806,-360,629
-306,1094,3054,740,-413,648
-262,1412,3179,730,-507,645
-111,1688,3533,793,-563,585
37,1628,3511,852,-558,523
147,1201,3357,840,-565,513
87,636,3382,749,-598,608
56,837,3515,685,-618,799
102,1409,3507,742,-599,887
104,1598,2940,872,-622,860
124,1772,2727,819,-741,839
222,2128,3058,693,-882,797
408,2080,3340,603,-953,686
503,1456,3534,550,-974,598
516,1113,3697,534,-961,633
543,1416,3789,587,-933,709
571,2183,3849,683,-905,726
652,2792,3840,730,-880,639
753,3001,3908,686,-875,511
831,2989,4218,601,-863,404
814,2785,4201,539,-806,324
701,2542,3899,427,-763,310
610,2508,3802,312,-786,328
560,2595,3847,209,-828,327
547,2558,3952,126,-862,292
594,2452,4063,89,-885,250
656,2603,4254,55,-897,231
735,2871,4420,51,-886,176
758,2895,4484,66,-845,80
726,2609,4112,100,-806,-7
721,2496,3857,18,-837,-13
756,2623,3936,-87,-902,-2
812,2609,3967,-192,-944,-5
890,2514,3914,-338,-982,4
992,2438,4096,-511,-1033,18
1115,2348,4514,-619,-1063,12
1173,2343,4723,-594,-1035,-28
1276,2381,4588,-551,-973,-86
1376,2423,4417,-569,-934,-141
1493,2572,4404,-623,-934,-197
1661,2526,4664,-723,-933,-271
1755,2080,4786,-776,-897,-343
1745,1928,4817,-784,-866,-342
1713,2036,4863,-835,-820,-324
1713,2036,4863,-835,-820,-324
1678,1998,4846,-841,-764,-367
1661,1877,4808,-792,-708,-434
1743,1825,4681,-749,-659,-482
1809,1760,4714,-772,-624,-522
1789,1603,4882,-809,-576,-565
1749,1545,4929,-803,-500,-594
1690,1545,4755,-765,-422,-625
1663,1461,4500,-742,-382,-664
1689,1228,4359,-752,-391,-690
1797,1030,4449,-788,-428,-678
1925,933,4669,-848,-443,-635
2031,879,4819,-909,-415,-596
2138,811,4924,-924,-369,-585
2216,892,5075,-915,-307,-588
2283,1072,5281,-878,-221,-627
2268,1133,5388,-835,-97,-703
2145,1018,5255,-813,30,-777
2013,846,5041,-807,126,-811
1885,562,4850,-818,178,-813
1757,255,4723,-795,198,-781
1680,156,4659,-765,205,-733
1678,114,4598,-685,209,-711
1753,0,4556,-620,210,-699
1955,-224,4600,-541,202,-691
2156,-552,4798,-507,214,-647
2224,-556,5164,-497,267,-541
2215,-132,5222,-440,389,-444
2169,150,4816,-488,510,-411
1993,-67,4743,-587,576,-427
1811,-262,4675,-566,631,-436
1621,-368,4485,-484,666,-445
1520,-439,4357,-346,661,-463
1489,-596,4398,-255,644,-464
1479,-797,4355,-236,650,-411
1499,-917,4290,-236,650,-318
1533,-830,4312,-230,638,-213
1657,-663,4475,-214,636,-132
1648,-432,4666,-191,672,-79
1560,-163,4703,-160,744,-47
1413,-187,4551,-113,823,-54
1179,-329,4254,-35,877,-57
997,-331,3899,72,877,-50
834,-375,3628,100,831,-44
826,-462,3589,60,746,-19
928,-451,3822,33,651,31
1011,-320,4139,0,609,107
1077,-165,4253,-1,630,166
1036,-230,4228,24,675,191
942,-296,4064,73,713,220
907,-258,3949,144,725,252
810,-328,3876,228,719,261
659,-219,3815,252,708,303
598,49,3692,292,693,327
562,-57,3596,333,659,303
555,-213,3622,365,612,314
617,-108,3666,392,572,367
650,22,3703,412,544,401
666,134,3699,440,525,411
707,62,3734,462,510,402
694,-83,3802,503,502,406
648,-4,3810,546,510,449
606,187,3714,591,524,482
544,345,3655,620,516,488
465,450,3506,685,489,469
422,366,3515,612,461,490
431,356,3550,604,425,526
443,445,3535,611,393,565
427,557,3454,622,372,589
445,828,3429,651,343,586
480,1009,3478,698,312,533
480,1009,3478,698,312,533
494,878,3453,700,300,488
498,574,3452,653,284,500
441,463,3490,595,264,585
446,613,3499,594,249,665
432,797,3530,642,234,688
397,1087,3550,731,227,668
351,1219,3358,814,236,606
294,941,3140,835,214,548
260,762,3185,840,152,560
321,937,3244,853,99,613
401,1176,3345,836,58,651
427,1198,3413,864,31,645
366,1336,3348,891,21,651
379,1970,3291,939,-1,649
488,2421,3286,950,-38,568
539,2248,3378,852,-73,469
468,2077,3561,763,-94,435
429,2136,3591,722,-90,430
317,2025,3509,684,-94,413
259,2002,3468,656,-122,433
322,2108,3521,622,-163,463
352,2195,3697,579,-200,476
346,2596,3824,572,-209,473
345,3167,3789,580,-201,404
378,3154,3770,562,-213,251
373,2606,3906,480,-237,138
401,2382,4011,390,-243,146
415,2444,4053,329,-244,182
417,2671,4168,282,-248,203
410,2921,4174,246,-234,190
464,2873,4038,218,-224,133
492,2514,3964,150,-250,77
454,2272,4037,93,-291,71
456,2206,4139,57,-318,89
539,2258,4269,-7,-319,118
685,2410,4364,-67,-299,137
775,2468,4381,-137,-272,134
813,2306,4360,-197,-251,116
909,2144,4404,-234,-238,106
971,2221,4544,-210,-219,86
963,2217,4548,-209,-167,39
953,1987,4436,-234,-113,-2
908,1768,4346,-266,-84,-10
839,1742,4366,-280,-67,11
833,1918,4228,-302,-45,38
865,1958,4229,-351,-38,36
865,1768,4249,-393,-26,27


-346,-1236,4425,421,268,163
-340,-1332,4423,482,253,191
-333,-1256,4468,539,255,251
-290,-1233,4379,559,269,302
-264,-1310,4354,591,270,342
-293,-1231,4400,690,272,386
-283,-1009,4355,784,304,412
-326,-822,4243,856,336,405
-363,-748,4155,913,357,381
-431,-792,4097,977,362,350
-470,-800,3972,1016,369,356
-405,-888,3739,1012,361,382
-316,-1060,3654,956,317,443
-259,-1148,3736,889,264,549
-242,-1152,3824,901,229,637
-304,-1014,3870,949,212,715
-342,-592,3900,1055,208,792
-307,-151,3892,1150,213,807
-344,264,3916,1226,217,771
-383,719,3825,1293,238,710
-397,862,3578,1268,261,620
-510,553,3369,1163,246,541
-617,127,3166,1080,195,522
-643,-137,3008,1007,120,568
-596,-114,2910,958,28,652
-445,66,2925,909,-67,733
-312,367,3189,871,-167,791
-237,838,3386,862,-218,814
-251,1265,3288,818,-226,786
-218,1417,3424,770,-248,724
-196,1192,3600,743,-233,668
-284,1037,3364,683,-203,669
-368,1008,3099,622,-227,695
-404,861,3095,543,-284,711
-452,770,3128,526,-340,730
-442,717,3154,530,-383,762
-436,585,3139,569,-425,796
-404,441,3041,599,-470,852
-306,607,3108,607,-530,933
-306,607,3108,607,-530,933
-181,1123,3212,621,-581,971
-91,1606,3265,569,-603,947
-74,1699,3309,500,-620,874
-77,1549,3439,550,-637,797
-39,1447,3408,633,-627,757
-7,1229,3248,697,-634,747
16,1096,3194,685,-670,797
27,1582,3553,658,-705,880
48,2261,3232,772,-704,883
145,2524,2594,777,-789,800
272,2103,2867,569,-964,707
512,1670,3600,372,-1066,685
676,1646,4119,346,-1042,709
673,1930,4229,426,-924,722
577,2227,3907,498,-793,699
442,2470,3531,581,-739,631
334,2640,3292,626,-761,538
331,2835,3151,604,-825,464
461,2856,3365,485,-908,412
549,2528,3627,341,-964,397
577,2402,3691,183,-983,459
646,2686,3797,68,-1006,523
750,3056,3950,-4,-1023,506
797,3217,4148,-61,-1022,401
822,3177,4269,-71,-994,254
841,2795,4152,-79,-960,129
864,2371,4134,-127,-958,91
945,2277,4237,-130,-968,120
1062,2813,4288,-146,-974,172
1170,3276,4308,-252,-962,141
1190,3129,4334,-339,-949,14
1108,2872,4286,-388,-934,-89
1090,2869,4077,-443,-920,-146
1121,2872,3906,-548,-945,-197
1197,2696,4001,-676,-1002,-249
1299,2311,4354,-806,-1053,-274
1359,1983,4676,-855,-1046,-271
1352,1928,4664,-863,-992,-245
1392,2242,4591,-839,-945,-242
1478,2345,4349,-782,-925,-315
1581,2438,4369,-799,-970,-392
1680,2345,4698,-886,-992,-482
1772,1888,4872,-903,-950,-583
1765,1597,4931,-925,-881,-610
1790,1698,4892,-882,-827,-601
1875,1924,4924,-891,-776,-612
1947,1860,4959,-942,-713,-655
1989,1722,4895,-935,-657,-706
2021,1453,4749,-964,-606,-746
2061,1145,4780,-1000,-584,-768
2070,1041,5098,-987,-562,-783
2030,1188,5327,-930,-473,-819
2014,1347,5263,-830,-344,-911
2079,1282,5026,-749,-234,-1030
2107,838,4917,-791,-171,-1105
2072,399,5008,-910,-133,-1073
2036,65,5054,-1036,-85,-981
1973,78,4947,-973,-46,-901
1924,-4,4876,-969,-18,-848
2036,-193,5004,-935,0,-823
2150,-258,5179,-810,32,-808
2144,-252,5266,-723,119,-782
2115,-280,5235,-654,228,-753
2054,-345,5068,-532,325,-729
2005,-487,4816,-404,384,-710
1964,-676,4841,-316,406,-671
1922,-615,4971,-194,451,-608
1885,-515,4597,-119,522,-553
1860,-438,4520,-201,528,-492
1837,-385,4824,-215,531,-451
1837,-385,4824,-215,531,-451
1807,-259,5009,-151,596,-420
1770,-148,4783,-101,694,-404
1682,-193,4563,-58,749,-418
1622,-393,4518,-31,772,-421
1550,-622,4556,-49,800,-374
1358,-658,4440,-55,845,-280
1151,-442,4112,-56,871,-170
1014,-388,3741,-48,836,-113
928,-561,3735,-29,730,-95
1001,-439,4039,31,624,-68
1163,-81,4344,51,592,-31
1352,95,4425,49,620,-14
1349,-173,4422,-6,663,7
1222,-321,4411,-32,710,75
1164,-212,4300,37,760,127
1085,-129,4175,170,796,125
954,-21,4105,313,804,108
889,105,3950,366,814,117
812,54,3816,346,806,143
718,4,3823,339,772,187
673,72,3827,376,749,225
642,249,3796,434,733,241
656,318,3735,457,721,241
619,277,3674,465,703,244
544,328,3664,457,684,271
530,458,3640,471,661,291
526,344,3553,481,641,296
453,53,3466,464,618,342
325,-85,3354,461,585,430
284,-15,3211,532,531,496
382,171,3238,591,459,529
526,257,3510,661,395,510
590,332,3801,726,376,490
602,643,3874,762,407,507
622,1035,3751,736,447,527
634,1202,3670,672,461,517
613,1097,3688,628,449,496
571,862,3705,598,449,500
452,641,3561,598,460,538
347,707,3213,580,453,623
356,854,3063,573,382,679
411,856,3225,568,297,688
409,792,3354,577,250,688
354,898,3285,601,233,708
338,1223,3110,631,210,714
401,1434,3047,640,153,671
547,1467,3279,591,93,638
660,1488,3600,536,75,640
655,1725,3813,531,110,664
559,1892,3677,564,177,651
323,1790,3385,555,208,623
122,1901,3176,559,176,609
89,2004,3024,573,103,557
57,1902,3131,574,3,479
46,2102,3279,599,-76,429
159,2415,3255,577,-127,387
210,2396,3367,471,-191,355
267,2380,3601,347,-245,379
353,2358,3854,248,-261,412
320,2441,3981,207,-240,430
260,2860,3934,204,-209,418
291,3117,3815,202,-198,328
328,2961,3859,160,-227,224
341,2782,4066,81,-254,174
368,2597,4054,-8,-249,154
331,2171,3943,-113,-257,148
372,1900,3957,-208,-301,193
460,1955,4104,-289,-346,268
460,1955,4104,-289,-346,268
524,2159,4168,-361,-367,315
557,2202,4166,-416,-392,303
691,2188,4332,-420,-426,271
804,2142,4442,-480,-427,253
860,2011,4502,-539,-409,235
912,1886,4581,-561,-383,213
940,1893,4630,-546,-342,177
940,1883,4719,-517,-283,124
961,1851,4728,-455,-209,59
930,1691,4643,-430,-127,10
897,1311,4686,-555,-44,30
851,1254,4610,-532,20,75
821,1424,4443,-510,77,118
741,1580,4233,-549,115,136
673,1697,3921,-548,112,108
667,1554,3778,-561,47,45
706,1245,3859,-587,-39,-4
802,994,3976,-614,-112,-8
959,836,4120,-674,-155,29
1102,804,4342,-755,-166,103


-163,-515,4463,846,253,501
-409,-378,4007,826,279,604
-414,-294,3932,841,254,630
-370,-50,3975,897,222,632
-238,217,4026,954,210,604
-173,256,4089,933,220,560
-298,181,4067,878,251,545
-456,83,3808,880,272,542
-532,-130,3645,854,252,563
-554,-162,3649,852,206,621
-565,-20,3649,886,174,677
-565,-20,3649,886,174,677
-571,141,3620,904,157,717
-536,448,3501,945,136,737
-500,816,3499,947,101,733
-414,1134,3460,971,61,688
-320,1169,3462,892,18,632
-274,878,3495,763,-18,597
-270,610,3891,679,-45,621
-329,601,4007,717,10,691
-456,854,3402,803,70,743
-618,997,2884,812,20,734
-651,1113,2942,811,-110,693
-520,1250,3298,812,-222,642
-387,1357,3548,818,-263,592
-317,1342,3605,760,-252,583
-264,1415,3567,659,-244,629
-268,1393,3526,545,-244,675
-293,1170,3444,455,-244,716
-390,1018,3305,406,-264,772
-479,1479,3169,378,-302,830
-467,1990,2923,363,-354,799
-388,1823,2945,338,-453,692
-312,1444,3363,278,-550,637
-268,1250,3574,249,-586,649
-181,1121,3567,313,-594,665
-83,1087,3505,345,-594,698
-19,1057,3474,351,-598,733
24,898,3514,431,-589,736
43,868,3294,628,-612,755
119,1390,3251,706,-664,819
157,2451,3388,669,-693,843
198,3020,3333,595,-687,714
221,2481,3169,465,-702,527
133,1709,3213,314,-760,477
55,1609,3301,229,-824,556
82,1749,3336,163,-852,625
117,1445,3214,134,-893,649
148,923,3232,98,-974,721
286,598,3524,140,-1048,831
412,1281,3784,312,-1064,928
506,3522,3877,406,-1014,924
630,4794,3529,554,-946,551
700,4006,3088,530,-961,79
651,2612,3343,141,-1051,-74
562,2026,3811,-139,-1119,20
597,2232,3866,-267,-1130,184
662,2422,3760,-393,-1146,305
778,2594,3886,-443,-1198,348
918,2759,4138,-443,-1219,312
1017,2784,4186,-456,-1182,220
1086,2633,4233,-454,-1130,103
1055,2433,4096,-456,-1096,26
1004,2564,4118,-562,-1112,31
974,2724,4130,-719,-1131,31
941,2564,3994,-836,-1158,-25
967,2254,3951,-898,-1218,-92
1220,2197,4046,-944,-1287,-117
1526,2211,4248,-1003,-1342,-137
1750,2277,4482,-1089,-1361,-151
1936,2212,4646,-1195,-1345,-174
2062,1965,4762,-1297,-1306,-206
2090,1785,4775,-1367,-1252,-228
2095,1799,5000,-1396,-1195,-262
2030,2008,5097,-1342,-1138,-326
2012,2193,5003,-1326,-1042,-433
2022,1895,5021,-1339,-950,-572
2059,1591,5000,-1243,-886,-684
2085,1214,4860,-1201,-812,-731
2135,909,4664,-1214,-753,-706
2257,670,4642,-1250,-720,-665
2257,670,4642,-1250,-720,-665
2358,498,4786,-1310,-683,-608
2441,607,4940,-1350,-620,-542
2500,888,4941,-1342,-534,-529
2565,948,4870,-1361,-456,-581
2615,733,4976,-1375,-397,-655
2541,723,5267,-1364,-324,-719
2438,558,5228,-1321,-193,-807
2345,32,4908,-1273,-66,-881
2286,-408,4722,-1212,-4,-887
2334,-643,4722,-1158,29,-838
2427,-724,4849,-1089,66,-771
2524,-578,4998,-1025,126,-707
2615,-558,5085,-977,219,-687
2621,-626,5106,-938,334,-681
2626,-644,5119,-882,449,-683
2662,-816,5067,-820,562,-696
2578,-1068,5098,-745,660,-675
2401,-1002,5053,-592,755,-611
2280,-797,4977,-377,837,-585
2090,-844,4725,-168,914,-620
1940,-1063,4512,-58,953,-629
1894,-1178,4146,20,949,-589
1882,-1200,4151,-53,883,-512
1903,-1212,4515,-89,844,-438
1976,-1217,4830,-49,876,-374
1966,-1057,4837,31,963,-311
1891,-854,4693,145,1053,-301
1701,-840,4385,322,1107,-354
1455,-915,4162,282,1134,-338
1259,-721,3824,238,1113,-279
1210,-609,3747,175,1023,-234
1175,-756,3991,139,911,-203
1096,-917,4157,94,854,-125
1090,-754,4206,61,838,-18
1162,-504,4186,69,827,40
1254,-598,4295,87,818,51
1276,-778,4478,113,841,86
1198,-845,4365,128,909,156
1012,-734,4107,112,961,254
781,-400,3880,123,965,324
637,-81,3717,202,931,301
611,-172,3678,305,865,210
612,-528,3776,363,798,165
598,-589,3887,394,758,209
604,-385,3833,410,745,272
648,-387,3758,399,725,301
678,-523,3820,381,696,333
627,-396,3895,362,682,408
565,-143,3824,386,682,455
436,-133,3697,426,666,454
334,-212,3574,444,632,455
363,-193,3657,466,579,475
431,49,3820,520,546,488
438,258,3812,581,551,465
437,234,3827,623,554,413
460,130,3868,664,546,389
474,195,3902,649,549,437
435,399,3824,617,560,498
284,509,3601,578,557,530
156,368,3266,541,519,541
90,115,3135,480,428,576
71,73,3217,451,327,632
115,232,3272,487,250,665
226,414,3399,549,190,659
364,555,3553,594,159,635
415,513,3624,599,159,613
430,537,3612,607,175,621
393,686,3521,626,187,636
330,894,3413,643,181,635
292,1061,3390,657,156,612
292,1061,3390,657,156,612
281,1181,3363,673,129,583
261,1272,3240,689,95,546
223,1264,3155,679,45,509
205,1135,3098,646,-12,496
241,810,3171,576,-81,516
291,596,3396,516,-141,595
312,854,3530,509,-165,690
311,1590,3552,533,-165,717
358,2168,3541,597,-175,602
397,2048,3640,647,-196,417
356,1646,3767,633,-204,317
328,1475,3789,602,-199,329
267,1523,3690,518,-205,396
253,1829,3690,412,-249,470
321,2181,3900,321,-311,494
351,2382,4168,236,-350,461
395,2479,4315,190,-354,386
451,2272,4390,177,-350,285
437,2134,4530,153,-340,235
450,2422,4639,126,-313,214
440,2560,4716,111,-278,137
460,2409,4695,125,-242,35
531,2049,4549,93,-223,-13
607,1680,4596,4,-233,30
681,1679,4714,-95,-233,136
685,1830,4715,-190,-213,211
662,1909,4682,-233,-191,217
690,1865,4562,-246,-176,175
749,1756,4523,-260,-186,128
794,1711,4582,-254,-199,89
812,1703,4637,-238,-193,53
820,1676,4743,-225,-157,7
812,1610,4803,-153,-103,-67
741,1491,4778,-74,-30,-144
624,1379,4611,-8,41,-200
567,1325,4431,5,84,-224
628,1328,4259,-8,96,-231
619,1335,4159,-58,82,-232
618,1341,4224,-99,57,-233
691,1284,4300,-81,42,-271
731,1119,4416,-62,40,-300
729,1019,4456,-16,59,-306
735,995,4457,-1,94,-293
756,1039,4531,34,132,-271
779,1178,4520,127,174,-269
777,1231,4492,194,224,-291
669,1148,4427,200,273,-308


-511,-864,3715,983,-3,590
-492,-909,3585,1028,-51,635
-423,-621,3484,1010,-103,732
-255,-202,3501,1031,-158,769
-136,-249,3517,1047,-187,721
-172,-513,3478,1009,-187,694
-219,-548,3360,1001,-185,712
-295,-372,3294,1068,-205,718
-311,-32,3319,1182,-232,698
-227,257,3279,1307,-252,651
-208,239,3259,1302,-260,621
-222,261,3151,1211,-270,667
-87,439,3160,1146,-304,733
-41,585,3299,1112,-337,757
-4,1013,3428,1083,-354,773
15,1290,3489,1055,-347,729
-123,1106,3256,1000,-345,665
-269,1013,2948,908,-409,666
-171,1147,3798,906,-481,677
8,1335,3955,1047,-404,647
72,1287,3306,1150,-357,625
17,1020,3142,1080,-421,686
-82,1402,3462,933,-479,846
47,2318,3479,841,-477,910
114,2287,3521,840,-489,753
108,1836,3423,850,-508,613
177,1781,3382,748,-545,570
195,1674,3614,696,-590,531
280,1463,3772,707,-580,530
311,1354,3529,740,-550,583
302,1714,3440,733,-576,664
415,2085,3821,771,-580,651
385,2222,3339,901,-574,583
479,2829,3301,861,-672,558
584,3079,3863,668,-742,469
523,2682,4206,510,-714,354
402,2445,4155,485,-644,305
307,2415,3820,500,-594,289
215,2515,3427,486,-612,294
284,2695,3283,394,-694,307
363,2578,3446,257,-796,299
408,2262,3674,106,-860,322
432,2264,3700,12,-897,393
512,2576,3768,-77,-934,431
607,2658,4034,-82,-967,351
665,2553,4193,-34,-954,219
657,2510,4043,0,-910,110
657,2394,3833,19,-898,34
672,2423,3698,-38,-922,20
806,2474,3704,-171,-966,33
875,2244,3856,-326,-1021,49
959,2185,4111,-473,-1060,92
1092,2290,4414,-522,-1063,98
1198,2541,4528,-491,-1033,55
1198,2541,4528,-491,-1033,55
1293,2780,4568,-474,-982,-32
1284,2607,4482,-487,-924,-143
1243,2207,4277,-541,-886,-203
1278,2012,4270,-606,-897,-195
1369,2208,4480,-663,-918,-164
1479,2387,4623,-716,-907,-196
1601,2123,4680,-731,-877,-288
1696,1942,4723,-732,-840,-333
1800,2109,4684,-749,-795,-349
1848,2110,4734,-807,-751,-397
1802,1821,4644,-796,-711,-460
1765,1715,4554,-787,-695,-483
1713,1753,4631,-818,-680,-506
1687,1806,4645,-843,-644,-555
1642,1530,4524,-865,-608,-624
1620,1086,4371,-896,-602,-648
1668,769,4289,-925,-626,-607
1832,903,4424,-946,-669,-530
2042,1130,4681,-1009,-675,-501
2157,1002,4903,-1034,-634,-549
2175,786,5028,-1012,-554,-610
2155,778,5153,-956,-460,-658
2115,892,5119,-921,-343,-700
2097,889,5032,-897,-242,-745
2130,698,4951,-879,-172,-766
2176,399,4951,-878,-126,-733
2169,353,5100,-923,-81,-633
2159,444,5186,-882,-18,-584
2123,303,5135,-806,57,-611
2140,-31,5131,-724,127,-651
2165,-281,5089,-644,194,-654
2095,-166,5163,-617,257,-597
2098,157,5212,-521,337,-577
2041,46,5011,-463,423,-615
2014,-304,4919,-505,486,-599
2045,-488,4914,-483,524,-543
1959,-533,4910,-497,584,-469
1885,-292,4777,-453,656,-411
1877,-210,4619,-298,693,-439
1848,-619,4616,-194,703,-483
1812,-965,4701,-183,730,-414
1766,-1001,4727,-176,783,-283
1568,-811,4555,-143,849,-162
1384,-358,4317,-111,886,-87
1421,165,4274,-54,877,-98
1494,191,4465,10,860,-194
1426,-117,4487,20,900,-240
1359,-357,4301,21,942,-206
1306,-473,4193,14,953,-126
1216,-572,4132,0,952,-34
1096,-625,4054,-4,947,62
961,-566,3905,-4,942,147
868,-409,3829,51,913,184
865,-262,3849,152,876,168
856,-191,3917,223,856,148
800,-63,3949,260,858,151
695,120,3847,274,876,156
577,38,3650,305,875,128
456,-205,3537,327,835,125
496,-294,3648,344,774,190
504,-285,3676,334,746,291
413,-221,3587,313,724,397
415,47,3563,353,675,464
518,277,3698,424,619,450
594,331,3816,490,587,405
560,262,3775,499,586,388
470,207,3617,498,582,399
402,94,3466,493,553,423
402,94,3466,493,553,423
374,43,3518,474,503,469
409,154,3713,504,458,510
465,281,3759,540,451,551
448,401,3654,545,460,596
380,644,3477,518,449,639
370,885,3349,507,406,638
363,749,3383,477,342,603
322,601,3456,437,293,603
331,754,3453,445,260,617
384,845,3549,508,223,584
420,755,3694,552,203,552
448,928,3789,599,210,568
453,1175,3709,633,237,571
357,1067,3561,620,252,559
290,899,3428,613,241,578
232,885,3308,612,211,619
175,1133,3249,603,168,657
217,1574,3225,612,113,649
240,1746,3230,594,55,588
232,1787,3301,527,2,541
308,1677,3405,487,-42,496
321,1405,3585,450,-75,486
310,1473,3736,421,-76,530
300,1891,3699,434,-59,543
288,2040,3582,459,-56,474
249,1815,3604,467,-78,386
190,1643,3706,460,-107,363
193,1695,3724,440,-122,389
189,1730,3666,410,-140,408
193,1781,3647,367,-171,420
197,1705,3660,324,-207,413
214,1531,3747,303,-245,409
312,1787,3868,315,-272,417
423,2119,4052,346,-284,366
465,2208,4218,384,-272,272
473,2102,4245,431,-236,190
455,1951,4165,447,-201,160
440,1860,4031,422,-185,177
426,1935,3948,364,-200,225
457,2133,4030,250,-229,269
504,2085,4204,210,-247,245
467,1946,4218,182,-238,225
475,2125,4143,160,-233,223
515,2199,4136,159,-251,168
565,2081,4234,166,-278,99
649,2019,4322,139,-289,75
755,2050,4411,87,-284,83
827,1993,4478,6,-271,99
888,1774,4603,-54,-249,117
914,1645,4676,-71,-205,146
937,1681,4648,-77,-148,171
963,1851,4630,-53,-99,163
1015,2141,4620,-31,-54,121
1065,2197,4632,-21,-9,35
1021,1904,4599,-54,35,-38
971,1691,4519,-132,73,-38
933,1694,4459,-285,100,22
1001,1741,4643,-421,129,71
1055,1853,4552,-301,142,12
1000,1641,4570,-348,174,-28
959,1522,4469,-369,205,-44
955,1428,4437,-387,219,-51
1001,1369,4530,-414,233,-45
982,1498,4618,-424,266,-38
901,1708,4574,-448,320,-38
840,1769,4432,-442,362,-86
790,1671,4374,-416,369,-155
733,1543,4362,-397,359,-200
696,1461,4320,-438,354,-201
678,1349,4356,-466,336,-189
678,1349,4356,-466,336,-189
636,1212,4405,-484,327,-170
671,1085,4451,-509,336,-137
750,1083,4470,-493,345,-111
738,1125,4512,-575,365,-65
721,1259,4603,-664,392,-19


-138,-953,4197,718,171,593
-375,-131,3414,823,122,712
-266,-361,3602,852,53,630
-296,-683,3751,863,40,612
-302,-588,3655,957,58,635
-250,-282,3573,1079,54,639
-165,-44,3520,1138,53,631
-177,-132,3552,1109,50,632
-249,-258,3481,1050,65,689
-314,-227,3234,1056,63,768
-342,-76,3114,1084,22,831
-373,252,3128,1150,-37,858
-278,820,3153,1229,-88,837
-174,827,3130,1266,-135,743
-141,594,3178,1181,-182,713
-116,776,3371,1106,-229,765
-30,1209,3930,1130,-204,788
-48,1541,3669,1232,-115,743
-138,1553,3111,1212,-107,701
-252,1406,3005,1056,-194,718
-279,1195,3195,897,-275,775
-308,869,3341,770,-313,853
-370,1067,3315,764,-329,940
-342,1734,2957,828,-357,940
-269,1700,2920,843,-450,813
-269,1700,2920,843,-450,813
-183,1423,3089,781,-542,740
-73,1229,3195,704,-593,752
68,1322,3424,708,-621,799
261,1614,3472,803,-625,820
326,1770,3536,869,-627,814
355,1987,3558,860,-618,814
306,2420,3826,832,-582,791
223,2995,3257,921,-541,704
244,3242,2678,861,-629,582
373,2551,3140,598,-799,478
422,1760,3803,379,-853,497
333,1716,3893,312,-787,611
247,2231,3552,400,-721,652
182,2236,3144,492,-721,580
194,2107,2991,523,-792,533
352,2418,3056,488,-880,539
548,2592,3343,419,-947,503
643,2390,3623,394,-969,441
662,2520,3654,376,-957,430
648,2792,3570,311,-951,412
622,2740,3512,248,-968,352
584,2488,3509,187,-997,311
564,2549,3568,150,-1037,297
650,3035,3623,156,-1076,251
812,3317,3718,189,-1123,118
1037,3314,4002,154,-1161,-7
1253,3066,4335,119,-1148,-92
1385,2832,4321,61,-1088,-87
1354,2803,4219,-103,-1027,-6
1202,2950,4015,-257,-991,64
1082,3067,3794,-379,-1005,73
1127,2868,3782,-480,-1064,22
1227,2589,4095,-537,-1130,-27
1352,2539,4313,-561,-1133,-61
1428,2514,4319,-576,-1100,-108
1527,2630,4311,-590,-1072,-151
1692,2615,4417,-646,-1041,-213
1751,2135,4335,-666,-1011,-283
1731,2116,4304,-721,-1003,-262
1796,2374,4542,-798,-987,-267
1865,2292,4814,-789,-936,-354
1876,2289,4695,-729,-857,-419
1957,2491,4661,-753,-807,-460
1987,2299,4832,-845,-764,-517
1943,2036,4887,-898,-708,-533
1912,2082,4721,-925,-649,-524
1933,2028,4590,-961,-619,-561
2022,1660,4612,-971,-618,-622
2131,1239,4821,-976,-606,-647
2185,1239,4961,-976,-555,-621
2260,1499,5001,-984,-478,-605
2315,1489,4988,-988,-404,-647
2302,1300,5030,-1013,-337,-697
2283,1077,5069,-983,-269,-767
2278,766,5125,-981,-191,-813
2282,634,5138,-957,-109,-821
2201,638,5069,-924,-30,-815
2151,640,4951,-920,30,-816
2210,275,5044,-887,64,-844
2252,-133,5280,-790,114,-831
2236,-29,5334,-733,213,-742
2215,293,5200,-665,317,-682
2226,408,5022,-558,391,-694
2218,70,4963,-496,442,-721
2159,-171,5071,-462,489,-683
2098,23,5043,-377,560,-610
2006,284,4799,-340,633,-577
1939,54,4693,-311,670,-590
1912,-288,4692,-286,701,-565
1912,-288,4692,-286,701,-565
1871,-442,4601,-316,747,-480
1769,-294,4556,-326,775,-389
1633,83,4409,-280,792,-352
1561,172,4246,-281,796,-369
1478,-13,4241,-281,768,-385
1502,-76,4313,-299,745,-337
1581,-115,4522,-302,737,-277
1464,-283,4627,-339,784,-199
1285,-100,4410,-320,854,-102
1262,451,4175,-228,876,-69
1279,409,4212,-177,866,-134
1167,-106,4249,-156,879,-167
1056,-463,4137,-146,902,-106
929,-545,4064,-99,903,-16
744,-264,3906,-51,900,73
705,56,3712,11,870,103
766,66,3786,63,809,82
896,257,4051,85,773,100
971,317,4152,87,797,110
865,-61,4100,79,844,118
684,-130,3877,103,881,177
559,160,3594,152,879,232
441,268,3441,205,824,221
395,41,3461,257,751,196
378,-265,3554,284,694,229
369,-300,3638,309,658,316
485,185,3737,361,632,402
550,687,3812,398,621,417
528,780,3834,385,623,381
488,485,3829,377,623,346
407,128,3766,349,622,384
302,65,3602,326,614,476
238,296,3494,356,577,536
217,468,3440,429,521,527
188,407,3426,465,463,504
236,515,3496,464,399,524
412,689,3696,454,350,551
514,685,3878,424,338,565
544,741,3957,421,357,582
523,916,3913,462,387,577
450,950,3800,496,408,548
416,1012,3745,533,406,531
362,1054,3693,557,402,527
254,841,3559,518,399,542
115,943,3372,469,373,607
85,1188,3251,457,315,627
97,994,3384,460,237,588
134,1055,3538,475,192,590
155,1260,3523,496,178,583
138,1420,3475,504,161,558
223,1719,3525,512,132,530
347,1854,3696,504,113,483
317,1615,3702,443,131,457
179,1314,3508,341,153,505
34,1363,3296,266,133,589
-34,1594,3224,230,72,628
15,1660,3251,250,0,590
64,1596,3339,276,-70,538
133,1957,3497,261,-127,524
233,2341,3650,258,-160,460
300,2170,3723,236,-168,361
309,1888,3875,176,-170,335
323,2058,4040,144,-152,372
264,2189,4030,145,-112,368
159,2043,3861,148,-80,340
65,1937,3658,124,-90,343
38,2085,3616,88,-144,356
109,2266,3769,76,-215,326
185,2292,3993,62,-270,264
185,2292,3993,62,-270,264
255,2274,4176,42,-288,207
310,2228,4192,28,-282,162
339,1986,4168,-28,-278,142
384,1696,4302,-75,-286,157
432,1773,4477,-79,-272,200
465,1962,4519,-58,-229,211
465,1937,4429,-10,-187,169
447,1884,4278,0,-169,135
466,1983,4242,0,-179,105
515,1936,4295,5,-198,51
585,1819,4338,0,-207,5
716,1766,4433,-14,-207,-14
781,1664,4556,-61,-185,-17
760,1585,4556,-113,-137,2
698,1474,4466,-140,-96,19
649,1357,4407,-146,-72,32
627,1376,4425,-117,-57,34
650,1528,4401,-77,-37,17
678,1475,4350,-79,-17,-17
684,1291,4348,-119,-6,-23
696,1208,4358,-154,6,3
699,1235,4367,-176,28,36
655,1284,4332,-197,51,61
598,1411,4236,-233,70,80
594,1517,4203,-238,74,71
563,1441,4150,-172,63,19
510,1159,4131,-182,55,-1
498,1068,4110,-193,41,19
521,1184,4158,-197,29,44
604,1333,4272,-174,22,30
643,1297,4353,-124,37,-18
633,1168,4352,-79,67,-55
590,1185,4266,-32,98,-66
533,1250,4164,-24,111,-66


-142,-970,4093,492,467,459
-278,-1195,4000,479,433,512
-457,-1170,3935,450,406,594
-501,-778,3756,552,369,626
-434,-478,3723,664,302,591
-259,-263,3881,750,237,550
-100,-256,4098,809,214,512
-85,-425,4136,769,250,525
-150,-504,3920,690,291,592
-196,-516,3795,703,296,632
-226,-572,3798,744,283,650
-181,-539,3854,815,274,678
-136,-377,3781,892,275,709
-157,29,3749,901,265,762
-164,591,3919,963,261,765
-223,851,3715,1062,287,691
-332,642,3390,1004,280,626
-411,290,3336,925,207,621
-425,241,3560,857,142,695
-362,503,3600,844,131,767
-353,457,3467,857,128,770
-444,200,3313,840,106,789
-461,227,3192,829,65,857
-367,212,3190,853,0,903
-304,163,3379,903,-62,940
-349,859,3448,920,-76,1017
-279,2163,3172,910,-87,1021
-146,2559,3162,852,-159,820
-285,1600,3315,753,-231,593
-526,687,3330,657,-265,591
-594,600,2953,631,-296,706
-505,655,2713,670,-415,770
-250,783,3010,699,-571,832
74,995,3450,690,-651,899
172,1083,3782,674,-643,943
85,1546,4023,709,-564,962
76,2469,3468,911,-486,880
91,2722,3078,988,-518,668
37,2086,3200,856,-598,496
47,1579,3355,719,-645,488
109,1600,3216,620,-664,575
141,1668,3065,519,-711,640
202,1610,3333,468,-775,671
274,1553,3411,473,-782,692
250,1655,3242,505,-781,724
300,2451,3131,519,-815,753
467,3078,3197,490,-870,657
460,2796,3257,401,-910,492
403,2319,3294,284,-930,411
431,1967,3187,232,-953,415
452,1692,3206,124,-1013,497
446,1689,3395,53,-1073,594
417,2008,3405,84,-1102,624
459,2587,3324,165,-1140,564
639,3085,3421,235,-1206,411
846,3146,3688,276,-1250,210
1010,2971,3853,246,-1246,76
1124,2833,3883,110,-1217,51
1128,2863,3974,-50,-1202,80
1069,2978,3907,-176,-1185,100
1069,2947,3700,-296,-1212,93
1181,2834,3938,-388,-1282,72
1279,2933,4233,-472,-1298,62
1324,3151,4372,-536,-1268,17
1310,3227,4323,-578,-1224,-78
1310,3258,4252,-614,-1206,-197
1382,3011,4310,-663,-1211,-318
1382,3011,4310,-663,-1211,-318
1437,2525,4319,-740,-1204,-382
1505,2193,4280,-829,-1194,-358
1534,2225,4245,-918,-1181,-296
1569,2270,4065,-1042,-1167,-261
1612,2101,4120,-1165,-1195,-262
1771,2001,4408,-1246,-1223,-257
1962,1904,4452,-1231,-1218,-289
2082,1939,4542,-1258,-1209,-334
2186,2081,4840,-1263,-1179,-418
2296,2259,5101,-1229,-1093,-537
2339,2178,5048,-1168,-970,-692
2296,1824,4867,-1163,-864,-813
2251,1307,4811,-1225,-785,-857
2239,943,4781,-1232,-727,-844
2276,795,4744,-1204,-675,-805
2366,745,4749,-1210,-623,-768
2404,636,4732,-1213,-564,-757
2401,584,4639,-1189,-499,-759
2452,534,4603,-1175,-446,-772
2494,403,4611,-1202,-399,-791
2524,200,4735,-1227,-353,-805
2550,-23,4854,-1204,-291,-813
2537,-106,4801,-1153,-209,-805
2513,48,4667,-1140,-147,-787
2553,53,4740,-1112,-116,-809
2560,-230,4846,-1058,-74,-844
2509,-607,4928,-985,-4,-845
2457,-618,4942,-913,81,-797
2531,-498,5041,-795,169,-784
2546,-559,5053,-646,272,-808
2456,-538,4900,-483,368,-806
2336,-611,4768,-472,449,-756
2266,-571,4629,-404,503,-708
2218,-597,4531,-323,527,-675
2175,-622,4584,-260,539,-637
2149,-474,4658,-212,567,-588
2089,-383,4653,-168,619,-573
1991,-488,4698,-104,677,-585
1878,-570,4426,-17,748,-563
1848,-369,4032,-132,775,-492
1795,-674,4007,-345,748,-451
1643,-1042,4349,-295,697,-389
1696,-609,4550,-242,722,-254
1714,-33,4395,-172,776,-222
1656,-9,4225,-108,788,-295
1599,-269,4202,-29,767,-351
1491,-575,4046,-5,755,-334
1417,-864,3888,-122,739,-221
1347,-794,3875,-206,688,-70
1346,-489,4026,-214,640,20
1326,-365,4168,-135,625,5
1316,-431,4275,-53,645,-24
1338,-595,4324,37,680,-33
1297,-603,4397,118,722,7
1339,-297,4413,201,778,67
1218,-38,4334,253,835,83
1090,85,4098,313,873,64
1032,-159,3899,358,863,30
932,-610,3967,360,822,50
841,-721,3942,373,803,165
836,-539,3784,414,782,270
814,-362,3701,444,730,323
939,-53,3925,512,662,336
1107,230,4205,577,647,297
1046,315,4251,559,695,259
952,273,4060,541,748,239
785,-97,3775,464,764,255
559,-378,3622,400,733,342
559,-378,3622,400,733,342
483,135,3448,530,579,468
483,135,3448,530,579,468
576,85,3584,552,493,451
632,44,3785,543,444,475
675,217,3801,543,438,521
680,230,3777,525,428,543
661,243,3859,504,417,575
672,388,3856,539,426,582
655,368,3773,579,433,556
636,418,3787,596,428,556
631,698,3798,651,432,557
636,795,3720,710,445,513
590,605,3593,712,446,482
536,682,3439,704,428,511
508,857,3243,679,386,542
546,807,3146,647,309,554
600,603,3236,567,227,607
624,557,3403,464,174,705
588,591,3468,411,156,781
557,652,3392,448,154,799
542,629,3315,543,136,767
577,798,3335,645,112,735
640,1155,3363,694,95,706
637,1423,3447,683,79,673
603,1886,3520,637,71,663
607,2222,3557,618,62,600
544,2050,3529,596,54,504
449,1627,3462,560,34,464
385,1450,3396,521,6,500
392,1622,3400,508,-30,550
452,1840,3499,496,-76,557
426,2079,3602,442,-101,545
423,2326,3650,411,-114,492
392,2204,3711,431,-135,387
326,2000,3758,434,-152,319
277,2089,3738,434,-165,298
290,2241,3674,424,-192,272
327,2255,3703,372,-233,254
384,2204,3755,286,-268,249
409,2052,3898,228,-310,251
466,2329,4092,201,-329,274
531,2650,4143,201,-320,223
563,2345,4141,203,-313,111
579,1894,4080,157,-312,82
617,1881,4053,80,-327,140
709,1968,4171,34,-350,177
798,1907,4274,21,-354,177
882,1872,4313,13,-350,177
927,1904,4370,10,-345,171
1020,2140,4515,31,-335,141
1129,2238,4645,49,-301,63
1141,2091,4681,29,-235,-12
1108,1919,4592,-6,-171,-48
1056,1706,4497,-51,-135,-48
1002,1647,4470,-115,-108,-7
977,1762,4376,-169,-90,19
975,1652,4380,-189,-91,0
944,1334,4389,-181,-78,-5
901,1186,4233,-166,-66,20
884,1102,4185,-149,-77,43
917,1220,4180,-147,-88,69
1031,1522,4257,-124,-99,55
1138,1655,4410,-95,-90,-15


60,-1693,4431,614,-31,383
72,-1609,4313,629,19,481
97,-1410,4127,723,50,519
130,-1410,4269,824,62,488
32,-1267,4310,990,113,449
-82,-784,4073,1150,174,420
-137,-456,3879,1273,190,357
-259,-514,3787,1299,168,315
-424,-516,3777,1247,134,375
-463,-418,3716,1226,105,463
-421,-393,3590,1262,54,526
-341,-426,3524,1230,-2,604
-199,-428,3754,1154,-51,713
-81,-209,4071,1170,-56,800
-169,240,4080,1211,8,853
-287,1000,3719,1269,88,840
-314,1309,3293,1314,96,688
-415,604,3273,1276,35,504
-537,-283,3318,1224,-12,481
-593,-254,3126,1167,-43,633
-489,421,2944,1165,-115,742
-305,644,3145,1206,-221,716
-133,472,3462,1207,-268,706
-97,389,3561,1158,-252,776
-197,738,3464,1115,-224,895
-157,1287,3160,1108,-220,961
-151,1555,3026,1045,-277,944
-135,2106,3078,865,-336,929
28,2148,3142,737,-394,830
26,1355,3496,674,-457,724
-14,1126,3609,620,-457,781
-10,1602,3482,673,-467,837
-12,1881,3327,717,-500,795
58,1672,3667,719,-530,718
115,1047,3440,857,-515,681
106,700,3072,898,-547,783
57,1095,2997,802,-623,944
-35,2236,3119,780,-701,992
147,3415,3058,846,-759,841
433,2969,3252,819,-827,543
433,2969,3252,819,-827,543
560,1585,3625,692,-850,427
611,1199,3637,578,-803,588
613,1560,3420,512,-753,760
522,1760,3298,517,-751,781
457,1823,3349,550,-777,733
450,1816,3456,619,-799,662
333,2303,3563,647,-801,644
437,3146,3353,649,-794,607
556,2901,3309,580,-842,470
579,2451,3585,455,-892,418
643,2536,3703,401,-896,423
659,2572,3561,351,-880,399
648,2474,3364,273,-901,398
775,2556,3522,181,-971,429
885,2766,3931,113,-1018,438
962,2856,4013,87,-996,407
1025,3038,3958,83,-984,354
1068,3287,4005,54,-979,275
1059,3337,3810,10,-955,164
1050,3031,3565,-86,-956,73
1029,2775,3514,-203,-992,49
1057,2972,3461,-265,-1033,51
1101,2992,3428,-426,-1083,39
1162,2694,3708,-572,-1157,18
1305,2498,3891,-621,-1197,1
1390,2198,4008,-674,-1212,0
1433,2205,4037,-758,-1211,37
1635,2392,4220,-786,-1209,40
1825,2675,4310,-714,-1199,-29
1881,3093,4490,-739,-1155,-133
1925,3149,4632,-735,-1078,-299
1944,2729,4610,-722,-1000,-450
1892,2361,4351,-747,-944,-490
1854,2287,4259,-871,-937,-439
1858,2326,4396,-926,-951,-422
1926,2027,4440,-987,-935,-450
2027,1564,4444,-1019,-921,-470
2265,1494,4611,-987,-915,-460
2525,2041,4931,-975,-873,-451
2706,2435,5115,-1017,-756,-546
2645,2305,4954,-1053,-611,-710
2552,1990,4645,-1131,-505,-819
2431,1585,4530,-1279,-466,-841
2317,1168,4531,-1439,-449,-799
2149,867,4440,-1512,-437,-731
2129,1085,4491,-1567,-439,-661
2302,1261,4802,-1535,-415,-712
2536,1048,5090,-1368,-338,-857
2551,485,5090,-1269,-199,-942
2516,77,4890,-1252,-71,-892
2496,-5,4834,-1235,3,-778
2439,264,4846,-1239,66,-672
2364,621,4814,-1204,128,-659
2373,611,4744,-1132,179,-748
2398,204,4763,-1062,219,-858
2282,-377,4739,-1035,274,-889
2141,-588,4738,-994,328,-807
2182,-354,4716,-920,380,-712
2311,-495,4798,-811,426,-700
2246,-853,4848,-720,491,-658
2131,-896,4727,-684,581,-551
2024,-706,4548,-578,641,-467
1951,-550,4478,-416,662,-455
1951,-545,4555,-272,674,-469
1997,-525,4773,-121,695,-477
1916,-375,4866,-27,767,-457
1807,-319,4825,-7,866,-425
1580,-504,4297,44,951,-403
1580,-504,4297,44,951,-403
1317,-537,3870,-62,935,-329
1196,-589,4059,-112,857,-269
1179,-496,4223,-33,813,-221
1174,-252,4156,34,796,-175
1175,42,4166,45,770,-145
1307,130,4183,45,755,-147
1390,-177,4198,48,733,-157
1409,-277,4312,-14,727,-81
1442,-53,4375,-67,743,1
1357,40,4334,-70,774,14
1191,-50,4185,-62,801,6
1085,-226,4015,-44,807,20
949,-419,3844,-43,783,62
858,-311,3774,-95,741,159
887,92,3783,-88,690,212
897,95,3913,-24,641,162
881,-248,4061,41,631,113
848,-492,4085,83,655,137
776,-398,3952,127,682,208
739,-230,3893,172,685,253
710,-169,3952,224,675,268
636,9,3901,240,681,308
612,346,3814,255,672,328
620,467,3802,307,635,284
583,180,3887,335,609,240
546,-91,3853,379,604,259
543,-180,3804,411,597,324
484,30,3745,451,584,390
450,221,3588,483,568,412
438,-23,3497,473,528,409
405,-159,3531,456,475,459
429,89,3596,475,432,519
461,286,3662,540,405,508
512,366,3692,612,391,473
517,464,3717,656,386,449
503,587,3653,698,382,433
540,521,3639,693,366,423
565,446,3763,659,345,442
566,739,3827,628,345,501
589,1204,3784,605,351,523
554,1220,3746,615,345,465
424,929,3657,588,340,440
326,739,3539,545,327,481
276,690,3482,549,293,535
246,713,3420,587,257,574
247,662,3350,590,220,610
228,661,3397,577,174,654
219,986,3438,613,135,677
305,1529,3455,671,102,638
397,1793,3542,704,75,530
464,1743,3637,735,62,410
507,1428,3555,708,71,350
453,1086,3571,612,64,394
407,1046,3538,535,54,503
399,1037,3508,461,38,604
320,1130,3611,474,12,654
265,1936,3544,569,0,651
306,2528,3359,618,-32,525
358,2189,3527,589,-103,360
426,1648,3762,532,-145,314
422,1531,3776,419,-145,398
402,2028,3783,271,-147,487
399,2321,3827,219,-161,448
401,2110,3947,215,-173,358
375,1837,3972,234,-168,320
351,1892,3923,225,-165,345
371,2140,3905,219,-176,359
404,2222,3842,212,-202,324
450,2211,3944,162,-239,284
454,2168,4106,120,-259,250
454,2168,4106,120,-259,250
459,2048,4142,108,-257,217
486,1873,4116,85,-255,204
514,1934,4137,43,-269,225
588,2055,4255,20,-278,221
635,1962,4394,27,-269,184
677,1934,4419,29,-239,156
675,2001,4426,32,-217,130
661,2121,4426,19,-201,101
665,2141,4425,1,-183,61
688,1966,4387,-13,-174,20
734,1702,4348,-67,-174,16
812,1539,4482,-107,-186,46
875,1616,4618,-121,-172,83
969,1712,4624,-114,-134,82
984,1631,4679,-87,-96,48
993,1655,4622,-64,-46,25
981,1736,4598,-28,-10,-22
930,1684,4647,23,23,-85
890,1570,4472,32,76,-115


195,-107,4538,1042,170,579
172,-197,4457,1087,229,506
-30,-597,4217,1046,286,485
-192,-877,4000,978,305,548
-310,-903,3940,960,283,630
-375,-404,3928,1014,260,702
-313,290,3830,1069,249,719
-278,430,3720,1029,228,666
-440,58,3586,883,201,651
-605,-120,3413,748,166,713
-681,-81,3193,751,98,748
-681,-81,3193,751,98,748
-651,-23,3163,871,-4,710
-456,-273,3491,1040,-84,654
-207,-323,3537,1151,-102,699
-71,0,3545,1078,-108,831
-62,658,3713,985,-113,944
-84,1342,3819,978,-83,935
-135,1595,3651,1020,-36,799
-264,1170,3377,981,-21,658
-365,493,3287,910,-58,635
-357,238,3321,868,-107,716
-315,385,3329,885,-138,802
-258,501,3270,931,-158,822
-294,524,3188,959,-182,835
-335,896,3073,974,-220,877
-322,1352,3049,933,-271,890
-294,1642,3025,916,-328,852
-137,1919,3103,918,-403,799
47,1852,3354,829,-467,741
81,1597,3630,699,-491,734
8,1794,3647,630,-470,780
-105,2034,3401,595,-461,779
-124,1709,3372,562,-474,731
-142,1210,2948,628,-529,729
-89,1409,2850,586,-656,835
113,1996,3212,491,-774,901
302,2201,3468,428,-821,849
381,2175,3614,405,-827,777
468,2299,3731,411,-798,714
519,2260,3584,463,-752,629
508,2089,3337,472,-739,571
506,1939,3186,453,-760,546
515,1752,3098,411,-803,542
586,1757,3123,355,-865,579
721,2153,3351,283,-929,628
819,2925,3760,218,-953,618
855,3301,3896,207,-918,472
787,2904,3766,178,-884,288
684,2466,3645,102,-877,210
599,2315,3465,-5,-891,236
543,2365,3438,-133,-942,285
533,2131,3572,-209,-1007,289
550,2073,3763,-256,-1048,314
633,2772,3932,-224,-1069,307
754,3196,4082,-176,-1069,160
884,2853,4154,-116,-1052,-25
987,2844,4132,-130,-1043,-81
1033,2970,4030,-250,-1040,-99
1021,2695,3951,-430,-1069,-117
1067,2397,3941,-638,-1117,-85
1152,2240,4108,-780,-1180,-49
1272,2489,4284,-853,-1220,-30
1373,2548,4388,-943,-1229,-75
1389,2309,4394,-1022,-1228,-142
1496,2167,4503,-1096,-1230,-183
1670,2065,4833,-1138,-1226,-234
1737,2107,5168,-1077,-1170,-314
1741,2373,5329,-972,-1055,-417
1741,2332,4944,-849,-936,-563
1770,2080,4635,-814,-891,-662
1909,1751,4634,-908,-893,-679
2031,1290,4850,-1030,-896,-641
2065,1083,5055,-1078,-854,-571
2080,1068,4869,-1023,-788,-527
2157,1159,4888,-984,-755,-531
2256,1302,5075,-931,-703,-595
2311,1228,5178,-873,-612,-708
2300,920,5130,-865,-502,-805
2252,698,5115,-901,-404,-836
2209,594,5095,-948,-319,-839
2209,594,5095,-948,-319,-839
2163,238,5024,-988,-236,-838
2172,-82,4953,-1003,-171,-790
2208,-183,4953,-970,-122,-724
2183,22,5036,-944,-75,-660
2177,322,5177,-857,-19,-663
2258,422,5109,-756,55,-734
2358,119,4992,-744,119,-800
2398,-324,5090,-780,162,-790
2327,-592,5181,-814,232,-708
2258,-543,5139,-782,321,-607
2266,-298,5072,-713,404,-546
2228,-315,5104,-621,478,-568
2118,-537,5115,-492,564,-606
1968,-691,4874,-307,643,-608
1845,-620,4636,-202,688,-565
1754,-574,4487,-135,691,-534
1689,-524,4456,-72,676,-510
1776,-536,4539,-3,679,-498
1812,-593,4435,14,685,-495
1771,-1003,4636,-181,710,-411
1749,-963,4803,-269,776,-251
1639,-771,4641,-203,856,-151
1455,-727,4426,-104,906,-121
1313,-657,4244,63,916,-126
1237,-531,4054,144,908,-119
1221,-184,4031,190,869,-107
1271,226,4109,185,832,-114
1214,30,4113,111,818,-156
1002,-443,4058,19,809,-131
892,-582,3948,-18,790,-25
875,-704,3892,-44,759,87
831,-693,3937,-45,729,212
769,-382,3881,-3,716,305
744,-108,3812,113,691,296
791,-9,3853,199,658,248
889,79,3971,258,633,203
960,-55,4096,294,633,166
908,-263,4057,291,659,186
854,-138,3974,305,675,242
775,-156,3821,354,677,259
678,-516,3690,379,661,281
582,-750,3601,404,627,366
533,-643,3528,456,584,471
540,-467,3488,561,540,529
576,-301,3427,644,510,549
655,-245,3429,718,476,540
652,-385,3414,729,457,559
621,-182,3403,743,443,619
601,172,3380,800,426,623
600,361,3426,867,401,570
564,609,3441,905,386,541
598,879,3432,866,376,542
536,875,3412,804,354,548
436,912,3320,726,325,594
344,959,3187,655,280,639
307,1038,3124,615,214,674
355,1150,3201,598,145,678
429,1276,3327,596,95,656
478,1208,3401,618,70,613
494,987,3383,620,59,598
508,1190,3325,628,38,630
546,1502,3331,640,6,626
548,1606,3407,650,-16,579
513,1644,3359,666,-27,530
441,1548,3284,669,-52,489
373,1600,3268,666,-97,481
377,1862,3218,639,-151,487
440,1812,3267,568,-213,478
509,1801,3519,480,-272,502
509,1801,3519,480,-272,502
555,2097,3790,442,-292,522
512,2300,3778,409,-270,474
479,2364,3803,437,-267,376
567,2706,3974,514,-279,265
654,2706,4197,552,-266,135
702,2360,4177,544,-223,67
707,1985,4127,415,-197,123
654,2040,4196,275,-195,252
548,2442,4155,179,-194,338
505,2857,4108,121,-209,317
581,2869,4227,87,-241,209
634,2494,4359,57,-259,104
662,2151,4413,19,-256,65
727,2095,4424,-9,-248,64
816,2099,4450,-30,-238,51
933,2063,4571,-39,-231,32
1013,2044,4682,-43,-203,12
999,1944,4665,-72,-148,0
1027,1975,4588,-51,-106,-16
1053,1888,4612,-24,-77,-48
1049,1696,4575,-18,-39,-67
1025,1508,4520,-14,-5,-64
992,1422,4406,-16,20,-50
954,1379,4341,-49,40,-34
880,1410,4305,-40,50,-39
860,1327,4242,-15,58,-62
834,1081,4201,-1,64,-73
801,1008,4133,-30,71,-38
815,1131,4130,-58,71,0
827,1346,4153,-35,66,-1
886,1452,4164,-9,72,-40
935,1325,4165,17,81,-96
964,1208,4168,3,95,-115
933,1184,4161,2,108,-112
918,1219,4180,-27,123,-81
913,1403,4182,16,132,-67
843,1422,4132,49,139,-81
758,1302,4027,14,145,-79
726,1216,3995,-14,133,-61
721,1245,3984,-1,116,-55
673,1157,3985,-24,109,-61
579,1151,3978,-44,107,-36
582,1258,3910,-50,104,-15
621,1203,3953,-61,86,-17
606,1147,4056,-80,76,1
657,1185,4119,-110,82,38
652,1244,4123,-135,96,63
595,1349,4078,-157,108,80


-318,-331,4894,442,821,28
-453,-315,4586,513,854,26
-582,-400,4187,540,839,34
-688,-448,4040,559,770,72
-726,-434,3962,570,692,129
-605,-542,3908,513,618,204
-484,-683,4066,491,547,277
-436,-584,4210,495,523,366
-403,-208,4184,573,539,409
-405,30,4083,698,556,365
-401,-35,4028,769,565,314
-424,-274,4061,759,576,320
-507,-338,4163,778,602,377
-656,4,4015,864,651,433
-741,529,3738,974,677,433
-731,747,3498,1049,653,370
-759,519,3491,1051,588,326
-782,472,3576,1010,530,377
-781,785,3558,996,497,450
-765,906,3481,958,470,479
-738,740,3488,916,442,489
-714,616,3478,903,415,515
-647,548,3447,861,394,574
-663,647,3401,820,376,638
-687,1037,3232,808,355,682
-650,1337,3021,784,317,666
-680,1115,2909,744,254,596
-697,678,2983,665,185,585
-649,623,2959,631,135,647
-619,703,2806,600,96,712
-578,700,2739,544,41,765
-541,700,2907,540,-18,802
-551,783,2935,594,-46,824
-581,771,2694,643,-73,838
-511,896,2999,731,-136,856
-385,814,3220,846,-132,857
-426,633,3007,868,-90,900
-518,946,2751,861,-93,996
-517,1435,2778,892,-138,1023
-563,1673,2808,914,-181,979
-607,1695,2825,887,-208,950
-685,2186,2491,887,-242,967
-620,2695,2280,798,-333,966
-473,2424,2405,665,-460,912
-268,1703,2845,445,-562,942
-151,1409,3289,251,-582,1090
-79,1776,3346,265,-538,1216
-93,2091,2956,357,-496,1218
-252,1994,2609,416,-529,1162
-390,2348,2188,404,-617,1167
-198,3095,2356,283,-780,1143
119,2893,3053,246,-901,994
222,2317,3141,229,-940,916
222,2317,3141,229,-940,916
235,2344,3162,143,-968,959
200,2739,3268,47,-972,1004
152,2858,3115,23,-953,964
92,2645,2954,95,-959,881
29,2386,2772,134,-994,838
42,2419,2656,104,-1075,853
252,2784,2890,51,-1185,865
434,3369,3281,22,-1263,821
571,4056,3603,-18,-1268,721
645,4298,3447,-63,-1226,559
644,3740,3036,-232,-1229,437
621,2872,2887,-544,-1315,468
648,2643,3165,-857,-1436,630
768,3202,3547,-1027,-1532,743
975,3750,3753,-1101,-1569,699
1152,3729,3723,-1144,-1594,541
1332,3573,4004,-1224,-1630,408
1470,3588,4544,-1138,-1619,254
1515,3440,4583,-1035,-1524,112
1435,3278,4336,-1059,-1431,38
1350,3177,4035,-1131,-1393,-9
1364,2986,3938,-1190,-1422,-59
1420,2808,3993,-1233,-1470,-97
1573,2632,4070,-1328,-1502,-112
1717,2588,4130,-1478,-1516,-104
1845,2480,4319,-1591,-1519,-129
1945,2268,4585,-1592,-1493,-210
2091,2162,4825,-1543,-1431,-300
2229,2236,5189,-1518,-1336,-380
2370,2334,5404,-1468,-1183,-469
2537,2188,5369,-1377,-1014,-574
2605,1937,5183,-1357,-863,-632
2524,1568,4882,-1412,-744,-646
2421,1266,4627,-1465,-680,-641
2435,1233,4701,-1479,-665,-634
2495,1218,4965,-1441,-643,-648
2610,1274,5172,-1432,-572,-652
2650,1126,5243,-1400,-455,-708
2525,776,5242,-1345,-332,-781
2423,659,5211,-1277,-209,-831
2435,541,4993,-1190,-89,-903
2487,48,4817,-1130,-13,-968
2549,-595,4883,-1063,16,-961
2597,-715,5166,-998,57,-839
2687,-50,5391,-903,155,-702
2743,459,5311,-781,284,-723
2687,22,5081,-686,395,-852
2509,-776,4964,-616,467,-902
2409,-1130,4975,-541,521,-818
2417,-1037,5065,-490,588,-673
2375,-796,4977,-466,688,-555
2291,-721,4868,-428,780,-509
2275,-849,5005,-315,858,-508
2259,-869,5211,-145,967,-492
2103,-1056,5268,41,1127,-471
1882,-1140,4575,209,1307,-424
1609,-1018,3845,191,1326,-356
1465,-967,3994,337,1210,-356
1475,-1188,4425,287,1175,-306
1369,-1210,4388,285,1210,-211
1305,-852,4196,375,1220,-121
1355,-576,4160,408,1198,-77
1391,-640,4216,366,1185,-50
1415,-689,4292,336,1190,3
1387,-617,4263,287,1212,98
1271,-581,4040,265,1228,195
1015,-644,3743,301,1204,267
804,-648,3538,398,1136,320
716,-599,3240,477,1024,345
716,-599,3240,477,1024,345
708,-492,3281,468,877,374
854,-439,3640,426,765,399
1041,-558,4078,388,738,437
1122,-716,4228,385,795,506
1075,-858,4165,409,887,591
951,-689,4031,530,964,660
776,-277,3795,696,1023,675
571,127,3403,871,1050,624
445,300,3084,977,1009,553
339,65,2952,1007,908,507
250,-161,2907,990,791,546
288,-140,2957,967,672,634
412,-37,3203,983,568,709
602,137,3518,1050,512,759
749,380,3735,1092,532,811
798,685,3778,1099,601,867
637,1095,3495,1144,678,886
397,1462,2938,1164,716,861
242,1554,2571,1136,660,809
74,1470,2343,1048,552,784
-23,1834,2230,941,416,810
70,2158,2169,868,270,777
173,1521,2219,776,116,690
209,841,2422,651,-12,740
322,1289,2489,617,-102,877
438,1932,2522,607,-175,898
447,1999,2718,566,-240,818
352,2088,2833,554,-270,767
238,2722,2683,596,-288,714
288,3087,2734,647,-350,561
358,2734,2978,613,-413,415
400,2277,3059,471,-440,416
397,2241,3123,313,-467,520
318,2689,3288,203,-505,608
262,3111,3336,209,-533,557
207,3044,3211,249,-566,413
242,2708,3178,250,-633,289
310,2503,3413,204,-717,239
445,2604,3787,186,-766,225
627,2600,4039,198,-763,194
752,2569,4096,140,-729,196
873,2771,4234,34,-699,229
1020,2840,4321,-69,-662,236
1182,2765,4323,-185,-644,227
1300,2648,4551,-311,-642,223
1405,2600,4863,-379,-609,217
1511,2452,4941,-426,-530,191
1500,2219,5055,-467,-454,170
1470,2359,5165,-422,-369,153
1532,2457,5096,-326,-264,61
1535,2237,5020,-256,-173,-53
1474,2054,4923,-227,-91,-115
1412,1950,4898,-229,-18,-146
1360,1811,4854,-262,56,-160
1256,1672,4852,-348,137,-132
1171,1736,4661,-280,191,-129
1185,1755,4474,-235,214,-143
1238,1710,4371,-273,204,-145
1290,1648,4504,-318,186,-140
1288,1552,4630,-276,188,-147
1258,1594,4703,-224,219,-146
1268,1741,4659,-157,272,-168
1244,1858,4522,-97,324,-233
1144,1859,4321,-96,356,-303
1056,1709,4179,-147,358,-351
1004,1563,4148,-203,335,-371
914,1437,4220,-319,313,-333
834,1365,4250,-455,317,-263
817,1398,4231,-542,321,-199
817,1398,4231,-542,321,-199
745,1481,4185,-608,311,-148
749,1515,4197,-671,288,-122
760,1542,4335,-665,256,-131
803,1608,4480,-645,248,-149
908,1686,4660,-644,262,-157
1019,1799,4821,-667,313,-160


-169,-332,3998,553,839,96
-203,-676,3610,482,555,285
-152,-664,3734,384,486,348
-201,-528,3826,382,444,394
-257,-2,3865,427,428,431
-206,517,3874,545,414,384
-179,430,3872,584,413,288
-272,33,3794,516,428,278
-361,-176,3577,484,428,336
-394,-322,3479,451,390,420
-312,-446,3492,477,339,492
-284,-377,3653,500,298,583
-307,337,3705,607,285,665
-206,1003,3543,726,285,646
-170,923,3512,726,269,555
-228,691,3510,664,248,518
-238,617,3539,598,228,545
-215,511,3549,595,215,574
-256,329,3495,598,215,613
-326,256,3382,615,209,674
-423,404,3160,641,188,734
-474,474,2938,653,132,766
-467,355,2944,683,39,783
-405,241,3159,677,-23,834
-405,241,3159,677,-23,834
-363,239,3201,704,-28,912
-327,687,2891,778,-30,969
-324,1053,2766,809,-87,940
-316,1156,2854,816,-159,848
-303,1083,2973,830,-218,760
-266,970,2999,830,-258,722
-163,809,2966,773,-293,764
-63,768,3111,698,-336,868
-35,896,3197,673,-351,969
-2,1137,3099,685,-350,1031
48,1743,2930,703,-377,1047
75,2374,2880,654,-434,985
158,2487,3105,585,-486,858
219,2035,3254,566,-501,734
138,1469,3133,552,-494,712
59,1358,2919,485,-508,817
81,1574,2688,419,-568,923
110,1767,2931,283,-665,980
171,1818,3173,284,-710,971
186,1668,2901,430,-758,917
218,1683,2947,433,-838,920
289,2069,3082,361,-899,942
392,2363,3159,327,-936,895
472,2262,3253,334,-962,809
550,2290,3260,319,-976,779
610,2568,3300,269,-990,776
643,2755,3436,207,-1009,738
626,2784,3484,101,-1015,702
620,2532,3489,-18,-1031,672
601,2252,3465,-75,-1056,675
617,2477,3254,-120,-1107,728
693,2793,3223,-187,-1199,733
735,2641,3216,-234,-1279,664
775,2290,3254,-330,-1358,633
968,2446,3562,-365,-1442,651
1258,2996,4006,-366,-1475,626
1458,3468,4418,-397,-1428,509
1453,3387,4472,-349,-1317,303
1337,3097,3858,-353,-1223,155
1279,2958,3485,-490,-1245,100
1277,2704,3485,-654,-1345,69
1350,2290,3613,-835,-1454,85
1560,2144,3933,-954,-1556,161
1866,2593,4316,-1062,-1606,267
2139,3266,4742,-1160,-1595,275
2222,3308,5018,-1202,-1523,135
2180,2906,5132,-1172,-1417,-38
2189,2745,5108,-1066,-1299,-179
2277,2673,5052,-956,-1187,-326
2338,2462,4820,-884,-1084,-452
2354,2423,4320,-908,-1053,-506
2415,2303,4224,-1125,-1099,-506
2486,1742,4463,-1336,-1152,-491
2583,1449,4785,-1427,-1167,-439
2709,1332,4827,-1413,-1119,-408
2872,1578,5008,-1392,-1060,-400
3058,2012,5403,-1292,-954,-489
3154,2040,5597,-1144,-774,-694
3064,1502,5447,-1073,-559,-896
2978,882,5302,-1021,-385,-997
2946,443,5046,-1019,-231,-981
2898,221,4621,-1091,-116,-876
2838,368,4450,-1143,-93,-755
2829,626,4493,-1146,-109,-714
2824,630,4654,-1155,-111,-761
2835,606,4900,-1144,-78,-830
2859,523,5071,-1046,-2,-939
2881,260,5050,-992,114,-1040
2848,-236,5023,-956,224,-1102
2840,-543,4988,-940,329,-1069
2840,-543,4988,-940,329,-1069
2776,-560,5015,-943,431,-969
2741,-315,5085,-947,532,-853
2742,-270,5128,-914,639,-798
2685,-364,4891,-851,761,-755
2674,-380,4645,-710,829,-714
2651,-450,4633,-570,851,-706
2558,-668,4613,-461,894,-692
2447,-896,4604,-303,935,-676
2319,-858,4532,-118,970,-664
2315,-776,4671,-67,1022,-625
2329,-717,4664,39,1079,-617
2260,-891,4703,36,1153,-571
2180,-1014,4758,68,1253,-477
2005,-1032,3949,-47,1347,-368
1655,-1191,3776,-143,1302,-266
1539,-993,4005,-116,1260,-186
1469,-972,3885,40,1249,-189
1381,-1236,3576,182,1199,-194
1361,-1335,3592,204,1095,-107
1418,-1003,3924,190,1011,24
1475,-570,4203,173,995,105
1482,-440,4294,206,1035,88
1469,-638,4243,273,1088,56
1368,-754,4089,321,1138,91
1173,-631,3730,361,1170,149
1013,-540,3480,355,1140,197
889,-650,3478,394,1067,204
795,-910,3644,494,1003,222
743,-832,3707,641,976,284
765,-375,3500,746,973,343
772,-298,3411,776,935,342
805,-418,3565,776,888,366
872,-292,3738,807,879,422
842,-119,3706,855,903,472
759,-40,3580,886,922,510
649,59,3448,910,922,547
525,314,3375,877,914,577
434,344,3086,937,884,556
320,164,2866,944,800,559
234,161,2853,866,696,629
248,377,2942,813,604,702
349,366,2990,804,532,744
511,408,3129,801,467,801
595,895,3358,805,434,869
621,1737,3297,817,446,870
596,1982,3107,804,444,749
458,1455,2976,747,408,633
339,879,2859,643,359,649
263,749,2753,545,296,759
241,904,2716,522,220,849
224,1156,2731,562,142,881
198,1562,2696,593,72,880
270,1819,2702,604,0,819
304,1665,2843,576,-75,748
329,1813,3101,536,-120,744
362,2403,3159,521,-131,713
317,2607,2979,479,-143,589
264,2280,2927,400,-210,466
366,1984,3486,322,-281,437
453,1930,3812,321,-264,476
421,2215,3599,336,-216,538
339,2438,3466,283,-218,555
287,2549,3481,259,-261,519
350,2728,3589,253,-323,454
521,2962,3941,269,-379,352
672,3158,4328,266,-386,240
728,3077,4506,203,-334,149
670,2678,4536,97,-276,115
605,2276,4539,29,-236,145
605,2276,4539,29,-236,145
548,2247,4427,-16,-207,216
562,2611,4351,-43,-212,259
668,2862,4407,-58,-238,215
765,2702,4593,-98,-257,141
860,2459,4698,-168,-245,114
955,2244,4683,-259,-216,124
997,2060,4713,-324,-194,143
1009,2191,4695,-353,-169,159
1040,2337,4679,-361,-144,120
1041,2224,4674,-382,-123,34
1001,2008,4585,-389,-104,-42
1062,1626,4646,-596,-74,-30
1076,1660,4653,-519,-70,-44
1084,1607,4747,-448,-48,-83
1157,1639,4827,-394,11,-114
1250,1666,4751,-307,82,-174
1244,1576,4686,-309,141,-210
1160,1503,4713,-347,200,-202
1090,1482,4589,-347,265,-198
940,1332,4367,-373,313,-205
829,1164,4210,-362,322,-204
786,1121,4165,-321,308,-200
751,1110,4125,-301,291,-197
706,1109,4064,-361,277,-173
710,1231,4114,-438,252,-129
778,1351,4189,-443,229,-133
841,1339,4234,-444,220,-168
821,1318,4362,-507,220,-178
780,1379,4487,-570,244,-183
774,1449,4583,-577,288,-207
843,1563,4558,-487,328,-262
835,1382,4563,-496,360,-307
697,1145,4468,-577,393,-295
641,1059,4349,-699,404,-218


-48,-285,4168,466,333,313
-95,-293,4043,544,359,324
-150,-324,3891,557,362,352
-162,-122,3820,563,341,405
-159,220,3842,601,310,411
-80,468,3909,657,282,361
20,272,3952,633,272,320
4,-76,3995,559,280,351
-59,-93,3918,528,291,436
-83,96,3757,560,288,506
-107,314,3591,589,272,527
-94,435,3478,584,235,520
-104,254,3477,558,192,492
-159,23,3454,536,163,486
-119,-39,3338,558,133,502
-43,-208,3274,534,84,541
-10,-224,3334,527,36,629
-11,-124,3247,555,18,704
-96,-70,2993,589,0,751
-190,112,2991,661,-55,767
-254,321,3047,771,-108,740
-278,515,2988,884,-157,702
-195,726,2872,935,-214,673
-107,653,3013,887,-283,657
-100,640,3178,853,-318,694
-154,855,3003,867,-313,732
-196,957,2650,909,-352,707
-117,855,2597,881,-450,690
58,880,2982,818,-554,735
229,1372,3189,791,-595,809
360,1710,3011,713,-613,824
412,1550,3189,528,-655,817
371,1508,3370,456,-662,825
382,1988,3291,509,-648,806
351,1755,3045,562,-645,685
230,1014,2687,516,-697,640
205,922,2883,458,-807,739
316,1413,3383,486,-853,816
393,1592,2896,599,-851,797
508,1976,2762,658,-975,777
708,2573,3372,534,-1097,756
761,2553,3766,367,-1096,674
691,2162,3749,276,-1043,618
652,2100,3620,240,-1017,628
683,2263,3626,214,-1030,634
757,2549,3935,242,-1053,592
835,2526,4040,281,-1029,504
844,2265,3837,302,-999,437
889,2141,3710,275,-1014,437
926,2148,3750,244,-1055,455
920,2328,3746,180,-1078,474
1058,2944,3655,153,-1111,449
1303,3044,3879,57,-1166,340
1474,2809,4381,-18,-1180,249
1544,2945,4404,-103,-1131,235
1605,3180,4461,-185,-1105,199
1632,3176,4631,-277,-1080,132
1658,3130,4622,-401,-1038,87
1686,2930,4614,-538,-1009,45
1692,2754,4726,-612,-991,27
1692,2754,4726,-612,-991,27
1723,2711,4613,-660,-947,27
1739,2522,4342,-755,-907,24
1780,2358,4193,-840,-911,26
1909,2461,4435,-895,-927,11
1952,2478,4488,-884,-911,-56
1956,2606,4501,-928,-889,-129
2010,2530,4575,-987,-858,-242
1967,2130,4457,-1031,-821,-355
1873,2011,4335,-1120,-797,-388
1824,2106,4246,-1165,-809,-400
1833,2106,4391,-1189,-830,-441
1829,1733,4367,-1241,-815,-494
1859,1295,4395,-1254,-814,-504
1990,1266,4516,-1236,-815,-473
2199,1475,4686,-1181,-798,-489
2379,1536,4820,-1145,-750,-548
2584,1384,4939,-1128,-676,-616
2701,1085,4946,-1125,-580,-679
2714,884,4966,-1138,-484,-709
2703,917,5048,-1084,-389,-747
2683,913,5030,-1037,-279,-803
2593,530,4818,-1065,-176,-841
2461,-6,4523,-1156,-120,-796
2481,-257,4563,-1214,-128,-695
2549,-408,4988,-1189,-132,-627
2636,-262,5395,-1107,-45,-571
2755,174,5474,-977,105,-578
2834,475,5426,-867,259,-673
2849,267,5263,-840,396,-800
2804,-285,5296,-852,495,-860
2689,-597,5238,-853,593,-806
2436,-753,4959,-804,677,-713
2339,-810,4688,-736,708,-630
2326,-953,4664,-698,701,-560
2331,-900,4857,-642,701,-480
2333,-500,5059,-519,739,-438
2352,-456,5042,-378,821,-499
2274,-1022,4820,-287,912,-559
2249,-1423,4705,-234,966,-490
2287,-1354,4738,-183,1000,-357
2235,-1182,4936,-166,1053,-246
2087,-960,4881,-91,1180,-157
1832,-582,3922,-92,1265,-121
1566,-763,3981,-19,1190,-195
1481,-1066,4125,42,1158,-233
1431,-1239,3995,67,1145,-202
1309,-1260,3811,76,1100,-119
1247,-1122,3729,22,1031,-12
1235,-1123,4091,48,955,55
1257,-1056,4081,157,938,122
1249,-762,4029,157,928,199
1106,-668,3923,86,934,248
937,-833,3669,67,928,272
819,-872,3528,117,880,300
824,-633,3458,216,816,317
837,-601,3506,291,747,291
928,-810,3757,330,701,294
1028,-809,3921,409,699,348
1051,-626,3953,482,729,402
966,-483,3910,531,774,429
877,-380,3776,593,807,440
805,-408,3690,667,817,443
691,-270,3596,724,819,467
588,-77,3494,761,809,475
481,-47,3480,807,770,461
410,24,3469,836,739,473
378,136,3227,820,714,495
344,-74,3121,779,650,505
358,-349,3250,863,559,532
358,-349,3250,863,559,532
423,127,3395,941,501,613
537,675,3466,908,487,635
563,780,3526,878,480,594
517,917,3492,826,486,580
412,1080,3323,791,485,554
280,1057,3105,757,453,506
199,688,2993,716,386,467
166,426,2968,674,303,504
206,590,2942,658,221,584
234,834,2963,636,145,630
309,1132,3039,630,77,646
395,1323,3144,618,24,626
471,1298,3290,602,-4,597
467,1378,3355,587,-11,596
471,1554,3239,550,-10,602
405,1436,3117,492,-32,590
324,1452,3185,445,-73,601
272,1608,3182,458,-108,596
231,1451,3035,464,-144,559
268,1190,3021,444,-213,558
371,1121,3219,411,-282,611
472,1351,3438,408,-321,660
541,1912,3570,467,-337,650
620,2425,3750,555,-336,539
708,2660,3848,625,-317,378
785,2464,3983,601,-308,248
769,2103,4177,488,-294,221
701,2134,4258,385,-264,274
616,2306,4171,310,-240,312
568,2409,4102,247,-251,306
640,2553,4178,190,-289,276
796,2358,4441,115,-311,215
879,1924,4715,55,-298,187
905,1967,4788,46,-254,219
922,2486,4842,76,-212,215
961,2814,4938,128,-166,94
949,2508,4901,161,-106,-67
915,1901,4869,196,-57,-156
819,1666,4678,232,-25,-139
691,1582,4550,96,-5,-45
610,1910,4510,51,-11,21
557,2114,4425,66,-18,-7
499,1860,4251,64,-32,-77
492,1513,4090,34,-74,-93
603,1335,4105,-24,-135,-50
752,1326,4323,-77,-184,0
854,1473,4505,-94,-182,20
934,1516,4529,-93,-141,1
968,1432,4468,-74,-94,-36
957,1304,4403,-42,-55,-58
910,1343,4433,23,-27,-66
855,1457,4380,94,10,-93
761,1364,4205,113,59,-134
665,1282,4051,126,78,-151
596,1400,3977,121,65,-139
606,1522,3885,81,48,-132
703,1311,3845,8,19,-149
746,1020,3961,-77,-12,-124
748,1056,4073,-136,-25,-58
786,1244,4115,-145,-18,-21
783,1308,4134,-145,0,-20
779,1351,4122,-146,19,-24
816,1380,4120,-106,33,-51
770,1291,4085,-80,43,-82
696,1235,4039,-112,57,-68
615,1334,3951,-127,58,-46
563,1357,3832,-148,40,-44
563,1357,3832,-148,40,-44
516,1060,3788,-169,-45,-56


-40,-786,4474,395,498,109
-155,-685,4424,456,489,131
-204,-477,4313,524,482,141
-213,-496,4262,555,470,129
-217,-620,4301,585,459,130
-266,-541,4187,602,465,149
-250,-656,4101,567,466,165
-232,-755,4047,559,455,201
-195,-749,3986,547,442,263
-193,-774,3975,576,422,314
-260,-684,3851,612,414,358
-277,-536,3823,645,397,384
-295,-457,3776,703,377,373
-309,-270,3758,723,357,380
-255,214,3760,784,327,373
-156,391,3867,823,306,320
-182,169,3896,841,301,262
-189,-92,3810,744,308,301
-144,-250,3777,687,291,375
-135,-278,3798,641,272,462
-171,-73,3767,586,260,564
-152,360,3735,572,247,631
-115,523,3714,580,236,616
-147,281,3698,545,233,593
-216,119,3598,501,231,629
-332,302,3474,472,217,695
-406,780,3236,482,195,734
-393,848,2908,473,143,688
-419,194,2751,372,55,653
-439,-302,2735,288,-45,720
-356,-138,2735,311,-148,815
-356,-138,2735,311,-148,815
-239,75,2815,364,-238,833
-149,83,2928,435,-299,809
-20,-10,2899,501,-344,800
45,-15,3200,542,-392,843
77,318,3473,629,-363,914
60,944,3130,798,-317,935
85,1432,2891,854,-343,888
106,1364,3017,795,-396,808
51,1017,3050,696,-418,775
-27,827,2931,615,-435,811
-89,902,2709,561,-472,885
-93,1120,2596,513,-574,954
-23,1397,2958,453,-689,986
26,1462,3248,448,-745,962
64,1590,3275,521,-751,939
151,1979,2996,542,-747,935
359,2225,2856,453,-789,905
467,2029,3050,303,-877,866
457,1889,3786,206,-913,864
326,1766,3700,231,-812,845
95,1655,2793,312,-801,818
72,1687,2496,294,-960,812
160,1512,2823,170,-1152,810
287,1551,3164,57,-1277,854
568,2282,3446,30,-1345,900
828,3035,3667,7,-1374,826
984,2908,3961,-40,-1369,640
1015,2246,4224,-42,-1333,487
1059,1922,4260,23,-1268,439
1108,2102,4301,88,-1219,451
1139,2650,4344,170,-1174,420
1154,3050,4260,209,-1126,314
1169,2849,4109,170,-1097,177
1147,2470,4055,80,-1105,119
1194,2566,4056,-21,-1134,153
1302,2779,4145,-161,-1170,174
1384,2664,4294,-320,-1186,160
1415,2642,4439,-373,-1200,138
1438,2940,4603,-380,-1197,89
1453,3100,4685,-387,-1158,-19
1531,3055,4608,-389,-1112,-159
1644,2943,4568,-433,-1092,-269
1776,2893,4593,-515,-1082,-332
1821,2665,4641,-665,-1068,-357
1814,2249,4516,-829,-1045,-344
1776,1874,4335,-1002,-1058,-276
1800,1900,4412,-1122,-1111,-187
1900,2248,4642,-1158,-1144,-169
2006,2407,4490,-1136,-1146,-265
2158,2375,4581,-1137,-1184,-410
2338,2278,4981,-1124,-1182,-566
2541,2129,5244,-1142,-1092,-704
2597,1547,5235,-1242,-951,-807
2510,1164,5126,-1293,-831,-814
2415,1120,5072,-1307,-718,-777
2290,990,4953,-1294,-600,-755
2200,799,4716,-1180,-518,-758
2244,781,4541,-1104,-475,-763
2376,706,4527,-1118,-454,-789
2479,452,4761,-1126,-438,-830
2562,236,4989,-1088,-379,-857
2621,107,5085,-1026,-280,-873
2726,66,5174,-968,-178,-877
2819,-97,5271,-928,-75,-886
2831,-383,5322,-893,31,-890
2772,-508,5317,-811,141,-873
2754,-493,5384,-712,239,-859
2769,-358,5475,-602,333,-858
2802,-218,5460,-527,442,-863
2802,-218,5460,-527,442,-863
2793,-555,5306,-466,548,-887
2711,-929,5140,-422,627,-841
2701,-918,5112,-352,683,-740
2727,-786,5102,-239,739,-667
2660,-847,4991,-151,802,-621
2533,-908,4868,-113,862,-552
2474,-685,4792,-55,908,-476
2417,-753,4725,19,958,-463
2267,-796,4595,58,1014,-434
2148,-512,4494,43,1059,-380
1997,-421,4451,148,1092,-413
1780,-929,4422,193,1138,-450
1621,-1305,4217,286,1199,-385
1360,-1279,3399,243,1197,-244
1162,-1268,3476,252,1065,-118
1181,-928,3767,212,993,-8
1204,-563,3712,189,958,38
1245,-337,3657,175,904,42
1263,-381,3794,110,849,47
1202,-694,3869,32,836,84
1109,-797,3777,21,837,170
1030,-586,3597,66,820,253
1024,-409,3555,142,778,267
1011,-479,3653,241,739,247
999,-655,3568,308,725,256
992,-871,3509,324,705,312
1014,-783,3589,385,676,397
1093,-523,3618,464,669,451
1136,-606,3686,498,682,468
1078,-578,3809,566,704,510
974,-62,3702,677,752,555
816,381,3404,763,784,520
685,381,3263,848,760,431
601,-9,3217,878,712,393
597,-241,3252,878,663,458
617,-80,3319,909,616,561
614,362,3280,921,584,645
650,673,3279,956,552,647
689,676,3322,1019,504,614
693,674,3306,1014,477,615
664,816,3262,946,456,659
651,1122,3206,888,428,698
613,1458,3155,822,397,702
590,1607,3124,769,364,654
583,1461,3108,752,325,585
576,1210,3129,761,286,557
532,1223,3036,731,259,601
453,1443,2917,654,219,663
433,1621,2874,631,152,673
411,1467,2867,588,83,658
355,1424,2875,538,21,675
369,1613,2870,526,-37,681
334,1664,2844,507,-93,655
334,1975,2874,498,-170,633
444,2467,3223,538,-254,563
500,2744,3401,559,-287,439
580,2890,3521,518,-309,328
621,2668,3805,433,-327,235
541,2146,3926,330,-304,207
486,1798,3860,259,-280,264
480,1847,3896,223,-291,358
461,2267,3970,209,-305,422
486,2830,3974,240,-316,387
545,3004,4030,260,-336,252
632,2688,4098,251,-349,103
718,2256,4108,200,-366,29
729,2034,4192,139,-388,39
749,2101,4242,99,-396,66
829,2289,4291,68,-404,65
976,2284,4476,27,-414,41
976,2284,4476,27,-414,41
1170,1976,4675,-33,-399,39
1252,1685,4793,-125,-347,102
1260,1793,4832,-173,-279,191
1306,1999,4712,-151,-213,208
1318,1962,4697,-110,-171,153
1315,1908,4738,-68,-125,95
1272,1825,4687,-24,-70,35
1272,1734,4631,8,-26,-12
1225,1690,4611,24,9,-35
1186,1740,4507,0,55,-40
1140,1717,4372,-15,79,-57
1091,1699,4290,-14,83,-73
1077,1604,4233,-7,80,-91
1099,1305,4213,-34,82,-96
1063,1091,4228,-55,88,-55
1040,1169,4242,-38,99,6
1052,1410,4146,-3,118,28
1028,1410,4101,-51,138,17
974,1323,4110,-47,144,0
936,1347,4068,-38,155,0
871,1356,3951,-62,169,0
803,1229,3813,-112,169,0
735,1126,3776,-145,144,8
698,1206,3802,-139,116,26
699,1369,3803,-140,101,26
708,1311,3791,-159,86,5
734,1213,3799,-198,64,12


12,-617,3936,784,355,400
10,-237,3833,789,360,443
21,-157,3728,792,350,438
-32,-346,3744,770,330,448
-32,-346,3744,770,330,448
-85,-134,3807,764,313,525
-90,446,3701,823,318,560
-163,573,3476,862,311,494
-301,184,3266,815,280,449
-368,-204,3076,733,224,487
-325,-287,3079,700,135,570
-222,-255,3250,716,37,642
-102,-114,3487,762,-29,708
31,192,3756,845,-39,764
77,654,3742,962,0,794
88,1162,3410,1061,28,768
95,1210,3305,1064,2,689
-4,1081,3397,1041,-24,620
-43,1305,3381,1017,-36,597
35,1593,3316,1039,-56,549
57,1304,3243,928,-76,505
27,811,3223,749,-104,552
0,628,3287,619,-143,684
-46,638,3189,569,-169,806
-117,563,2933,558,-204,869
-130,630,2800,564,-289,905
-88,895,2746,621,-392,905
-22,1406,2705,621,-504,890
135,1961,2900,546,-587,834
348,1922,3133,485,-639,709
430,1265,3362,490,-658,611
423,913,3415,503,-634,644
406,1041,3166,590,-618,695
303,1271,3069,618,-645,724
343,1884,3345,693,-678,717
437,2010,3152,855,-670,607
423,1642,2723,869,-732,551
491,1830,2908,730,-851,626
627,2288,3380,637,-927,668
605,2531,3467,589,-916,628
602,2594,3369,528,-904,561
599,2508,3478,432,-924,499
623,2615,3729,379,-940,457
636,2963,3785,426,-937,385
704,2940,3845,426,-935,289
712,2780,3839,397,-934,241
687,2868,3604,271,-948,276
720,3102,3523,141,-1013,297
842,3183,3610,11,-1087,271
1016,3208,3896,-104,-1151,234
1093,3216,4169,-210,-1175,195
1063,3242,4164,-321,-1150,155
1081,3248,4159,-399,-1134,88
1208,2895,4281,-427,-1126,-17
1258,2568,4266,-483,-1110,-62
1309,2796,4259,-528,-1095,-53
1367,2906,4236,-616,-1079,-84
1326,2601,4216,-739,-1078,-136
1313,2433,4209,-839,-1088,-141
1379,2431,4232,-918,-1105,-142
1499,2335,4508,-968,-1121,-172
1592,2132,4645,-961,-1089,-224
1690,2051,4560,-929,-1028,-258
1792,2076,4539,-890,-987,-307
1856,2026,4583,-879,-954,-388
1906,1934,4597,-846,-925,-481
2038,1959,4816,-826,-891,-568
2179,2030,4893,-787,-835,-652
2237,1958,4967,-806,-760,-735
2192,1614,4953,-891,-673,-775
2157,1191,4880,-963,-601,-745
2137,1018,4773,-1017,-548,-660
2191,1158,4781,-1090,-513,-580
2309,1249,4812,-1098,-483,-578
2309,1249,4812,-1098,-483,-578
2459,1223,4856,-1062,-455,-631
2646,957,5090,-1071,-406,-696
2691,612,5284,-1100,-314,-720
2640,704,5417,-1101,-192,-695
2525,788,5349,-1036,-49,-735
2398,537,5067,-967,71,-820
2308,137,4926,-897,131,-869
2218,-32,4889,-861,160,-820
2202,216,4808,-839,187,-734
2282,232,4722,-796,196,-718
2455,-256,4814,-777,201,-722
2582,-679,5115,-784,233,-642
2609,-531,5289,-774,329,-499
2543,103,5276,-721,456,-409
2456,514,5123,-625,582,-466
2260,275,4883,-592,693,-583
2007,-390,4673,-588,764,-636
1737,-902,4514,-541,803,-565
1507,-686,3999,-517,792,-408
1449,-329,4175,-509,711,-334
1535,-242,4428,-445,683,-353
1664,-344,4510,-386,700,-375
1780,-388,4572,-367,729,-342
1825,-443,4657,-410,778,-276
1734,-531,4680,-428,845,-205
1576,-346,4500,-420,920,-137
1494,-132,4248,-387,969,-115
1367,-412,4018,-319,974,-148
1187,-894,3845,-276,949,-140
1036,-1173,3720,-232,905,-71
966,-1198,3634,-134,838,10
1015,-1025,3735,-35,763,88
1161,-599,3954,47,709,152
1268,-30,3926,108,689,159
1259,-19,4368,146,670,87
1149,-772,4500,387,733,34
1087,-618,3864,424,801,156
989,-219,3795,272,760,272
944,-31,4211,251,736,298
857,-64,4209,337,789,259
731,-325,3834,425,838,224
656,-552,3849,468,839,261
631,-350,3530,466,838,322
473,-517,3597,575,769,328
588,92,3703,673,737,383
760,560,3597,645,724,348
676,50,3575,500,694,289
539,-277,3692,437,653,333
450,-197,3693,506,630,407
338,-90,3480,572,609,462
246,231,3277,611,558,507
233,480,3207,655,480,496
281,377,3294,654,398,458
356,300,3467,632,342,459
417,389,3600,629,320,479
423,349,3601,667,327,475
460,325,3528,713,331,480
503,433,3499,755,323,501
551,771,3542,756,315,541
563,1106,3564,753,316,552
517,1443,3476,746,321,534
516,1622,3300,704,315,487
398,941,3216,596,281,427
279,243,3239,518,233,476
264,358,3244,536,191,602
234,782,3332,608,163,655
251,1026,3191,769,136,619
313,1045,3189,830,87,587
317,1283,3401,809,50,597
317,1283,3401,809,50,597
364,1691,3497,849,47,566
388,1756,3498,905,54,469
392,1856,3529,914,54,408
411,2084,3539,904,50,367
408,2220,3595,854,40,334
398,2281,3618,785,34,317
358,2200,3515,669,20,318
319,2010,3543,525,-10,354
265,1888,3639,408,-37,413
147,1834,3542,341,-54,466
123,2143,3435,326,-104,492
229,2417,3652,326,-186,439
378,2248,4011,334,-233,338
418,1925,4155,344,-219,283
403,1827,4107,338,-186,286
349,1879,3989,316,-166,303
273,1845,3887,292,-173,300
254,1883,3944,302,-203,282
326,2207,4079,356,-225,243
414,2478,4186,368,-231,179
429,2463,4278,341,-226,115
475,2399,4297,298,-214,79
491,2289,4397,250,-208,59
472,2280,4422,216,-192,56
482,2184,4333,195,-178,45
503,1956,4308,145,-183,62
522,1982,4383,91,-189,120
529,2169,4311,88,-186,147
568,2133,4238,87,-194,117
646,2067,4378,93,-217,89
760,2285,4504,66,-210,85
846,2153,4537,33,-173,41
813,1817,4513,10,-130,16
803,1920,4432,18,-94,29
794,2007,4368,22,-69,8
778,1929,4372,17,-49,-21
768,1792,4330,21,-27,-44
729,1729,4258,16,-13,-46
722,1822,4210,9,-12,-40
744,1852,4224,3,-17,-53
751,1699,4263,1,-13,-75
727,1635,4235,34,0,-85
729,1552,4162,28,21,-76
783,1484,4170,43,30,-68
811,1619,4231,59,47,-48
776,1748,4168,54,87,-45
683,1706,4031,93,113,-75
651,1631,3764,103,112,-88
638,1473,3749,-19,80,-51
640,1531,3899,-80,51,0
623,1691,3976,-68,46,12
588,1682,3901,-38,60,-22
611,1520,3852,-4,62,-63
623,1410,3930,54,49,-75
631,1484,3904,74,56,-56


134,-1547,4637,512,376,137
81,-1641,4675,522,396,211
70,-1437,4656,574,425,309
73,-1302,4565,615,463,369
-42,-1374,4437,653,494,395
-230,-1275,4215,683,516,453
-333,-975,3906,762,512,484
-434,-982,3661,799,466,454
-554,-1018,3607,809,386,438
-530,-830,3571,845,303,446
-402,-771,3691,829,221,448
-341,-781,3885,814,164,461
-340,-728,3964,806,147,504
-331,-621,3863,844,158,540
-209,-653,3794,884,155,561
-119,-789,3898,921,136,594
-127,-581,4052,990,145,663
-97,73,4008,1104,186,706
-49,705,3838,1125,223,678
-64,879,3803,1057,233,594
-183,873,3711,1001,235,530
-299,699,3393,904,229,516
-386,302,3097,757,168,553
-391,-49,3155,696,65,628
-410,-371,3182,679,1,724
-410,-517,3040,739,-45,833
-366,-426,2893,861,-110,901
-276,-272,2985,973,-182,938
-220,3,3066,1083,-224,954
-124,569,3040,1179,-247,949
-21,1049,3058,1225,-268,896
0,1145,3155,1221,-278,819
-79,1110,2922,1217,-272,750
-195,842,2614,1042,-295,749
-334,739,2573,985,-388,773
-339,1047,2581,1055,-497,782
-199,1226,2466,1121,-611,753
-7,1185,2471,1018,-742,763
237,1506,3029,834,-865,856
514,2129,3537,740,-881,914
642,2512,3731,805,-829,842
575,2350,3535,822,-742,720
439,1755,3173,774,-696,640
257,1194,3317,789,-740,641
193,1551,3674,884,-732,702
193,1551,3674,884,-732,702
159,1803,2978,987,-685,696
176,1946,2465,1065,-815,660
402,2165,2758,910,-1001,676
609,2155,3433,712,-1105,687
697,2587,3744,689,-1103,696
876,3464,3811,648,-1050,666
1003,3552,3923,554,-1007,513
1000,2811,3975,382,-956,411
875,2203,4028,226,-906,453
729,2114,3855,189,-848,548
619,2146,3311,229,-843,582
614,2085,3101,234,-931,575
720,2132,3338,248,-1045,560
918,2578,3673,334,-1107,515
1180,3444,3825,397,-1108,423
1406,3860,3924,342,-1083,255
1494,3288,4123,163,-1050,93
1403,2695,4400,-14,-1006,69
1270,2628,4372,-98,-928,112
1074,2627,3993,-84,-895,116
1011,2735,3678,-128,-928,121
1127,2792,3959,-219,-1005,99
1192,2976,4334,-204,-1026,43
1293,3450,4204,-199,-971,-27
1420,3609,4062,-214,-965,-165
1568,3253,4170,-349,-988,-285
1662,2593,4421,-521,-994,-319
1665,2207,4512,-667,-956,-250
1708,2253,4528,-745,-902,-155
1695,2543,4326,-784,-850,-112
1664,2750,4074,-822,-823,-146
1620,2607,3712,-819,-838,-243
1673,2423,3555,-881,-930,-313
1893,2272,4184,-1008,-1028,-364
2055,2050,4719,-1061,-1001,-409
2063,2064,4734,-1030,-878,-440
2057,2008,4650,-1017,-760,-493
2029,1465,4405,-976,-682,-563
2039,1062,4434,-989,-655,-538
2091,1192,4713,-1017,-622,-460
2185,1664,4844,-968,-545,-450
2277,1955,4753,-919,-453,-540
2313,1742,4654,-889,-396,-680
2325,1394,4713,-885,-367,-778
2387,1095,4793,-881,-326,-818
2394,802,4841,-895,-275,-810
2351,849,4920,-903,-223,-757
2368,1135,4987,-867,-162,-732
2347,1097,4934,-855,-89,-769
2180,808,4769,-894,-19,-791
2068,632,4580,-920,11,-776
2056,348,4531,-912,7,-762
2173,83,4612,-907,4,-719
2249,-35,4844,-899,16,-648
2346,317,5094,-840,68,-575
2509,526,5238,-751,161,-598
2526,306,5316,-708,281,-652
2454,201,5256,-713,414,-642
2303,123,5039,-654,526,-634
2114,-86,4815,-565,597,-626
1952,-112,4684,-444,628,-597
1847,98,4495,-339,643,-570
1831,31,4346,-278,636,-587
1862,-539,4437,-260,622,-595
1915,-788,4402,-250,625,-490
1968,-333,4577,-298,629,-340
2036,-214,4802,-328,692,-297
1980,-350,4894,-301,794,-287
1801,-169,4698,-208,895,-249
1801,-169,4698,-208,895,-249
1675,-16,4386,-140,960,-239
1513,-203,4197,-114,974,-243
1389,-159,4135,-101,957,-195
1291,28,4006,-110,938,-155
1174,-137,3779,-122,909,-160
1034,-410,3755,-149,842,-135
1066,-341,3893,-164,776,-57
1125,-331,4071,-157,744,0
1075,-460,4160,-142,754,52
1006,-311,4136,-82,779,126
1021,-34,3960,-2,812,155
1018,-307,3779,49,821,125
906,-631,3662,68,801,151
916,-320,3602,113,751,238
920,171,3809,214,668,251
950,-128,4218,459,654,176
999,-580,3938,689,686,192
972,-320,3635,608,692,324
823,-23,3774,593,648,385
874,260,3948,624,649,393
868,378,3938,566,702,384
830,518,3858,569,744,367
804,372,3860,593,766,336
677,8,3805,573,798,360
554,-5,3701,592,820,443
484,412,3467,632,825,513
414,534,3305,627,804,488
282,98,3105,784,732,425
324,279,3099,913,623,457
381,625,3336,904,541,486
415,884,3419,850,508,502
477,1090,3368,797,487,509
475,984,3347,691,463,521
452,917,3418,618,437,557
403,994,3478,610,422,588
340,1127,3344,645,428,601
303,1143,3100,671,412,598
292,916,3021,617,358,617
316,863,3122,550,290,693
323,1333,3174,526,243,765
333,1892,3162,539,206,739
339,2080,3111,551,161,630
359,1871,3105,498,113,543
403,1609,3285,443,62,527
412,1425,3338,408,50,564
375,1177,3253,352,51,627
293,1138,3202,342,36,703
249,1347,3096,389,10,739
251,1351,3030,436,-38,713
208,1706,3243,463,-111,699
260,2539,3507,521,-123,647
294,2597,3409,620,-105,469
220,1843,3173,610,-107,338
180,1471,3001,555,-169,383
218,1700,3159,497,-272,474
232,2306,3439,459,-349,517
363,2873,3595,466,-387,467
534,2851,3781,439,-407,357
624,2557,4022,373,-402,302
631,2405,4153,320,-367,312
507,2232,4026,273,-304,336
322,1995,3660,269,-272,352
261,1889,3379,284,-314,372
336,2289,3486,298,-414,393
585,2856,3888,339,-493,338
840,2885,4225,358,-509,212
953,2744,4440,316,-476,132
945,2793,4528,261,-414,101
930,2764,4510,236,-346,57
930,2764,4510,236,-346,57
888,2481,4349,185,-296,37
837,2215,4288,67,-284,95
860,2253,4344,-34,-286,190
884,2389,4420,-85,-282,243
876,2513,4458,-103,-266,239
930,2607,4449,-72,-251,176
1011,2622,4449,-54,-238,94
1125,2507,4479,-69,-218,12
1173,2156,4562,-114,-186,-43
1183,2013,4704,-127,-138,-48
1155,2086,4664,-89,-75,-54
1173,1987,4511,-127,-7,-51
1153,1792,4421,-165,22,-37
1127,1767,4397,-202,41,0


-172,-1083,4760,473,489,53
-225,-910,4766,595,514,88
-238,-795,4585,695,551,97
-209,-1115,4367,657,591,127
-296,-1239,4210,625,599,232
-317,-965,4140,639,589,343
-338,-761,3981,734,578,358
-394,-720,3845,818,560,336
-400,-710,3716,851,531,325
-338,-714,3754,842,491,334
-290,-719,3904,893,467,326
-254,-677,3812,875,489,345
-251,-802,3676,864,493,367
-307,-733,3445,979,451,402
-248,-502,3482,944,389,490
-227,-339,3672,894,337,538
-264,-350,3731,864,330,549
-264,-350,3731,864,330,549
-334,-228,3643,844,333,594
-379,251,3475,891,316,616
-426,851,3345,857,277,607
-353,1074,3354,786,220,541
-440,750,3378,738,167,453
-544,226,3301,604,140,474
-601,-68,3114,588,93,537
-623,-178,2950,636,13,595
-589,-194,3019,671,-66,645
-545,-324,3071,779,-127,682
-478,-260,2990,883,-172,763
-405,179,2904,896,-219,881
-342,1070,2929,863,-271,962
-257,1708,2829,822,-307,908
-165,1450,2720,766,-360,762
-118,701,2750,663,-428,688
-100,397,2830,563,-490,752
-72,372,2800,465,-521,839
-120,161,2793,452,-555,877
-192,110,2679,536,-596,916
-224,633,2504,648,-675,951
-107,1606,2800,739,-775,931
175,2269,3048,826,-823,797
343,1956,3158,769,-834,650
290,1217,3055,569,-822,649
199,934,3016,379,-850,776
122,1066,2966,330,-901,866
127,1485,3314,419,-959,870
207,1801,3417,614,-943,785
230,1858,2950,813,-975,696
352,2290,2969,731,-1093,713
577,2553,3380,512,-1194,710
705,2235,3770,320,-1226,666
787,1696,3930,218,-1189,656
729,1550,3876,162,-1127,710
662,2006,3727,188,-1092,744
672,2444,3680,291,-1097,667
757,2519,3562,374,-1120,549
881,2379,3621,369,-1176,471
1069,2250,3964,336,-1227,442
1144,2205,4213,238,-1207,460
1086,2323,4202,172,-1153,467
1079,2565,4067,191,-1125,416
1127,2816,4100,210,-1137,323
1213,2974,4338,236,-1144,216
1286,3101,4120,235,-1131,125
1383,3126,3929,138,-1176,78
1551,2854,4189,-62,-1247,74
1716,2494,4619,-267,-1265,131
1804,2458,4703,-434,-1199,233
1768,2687,4541,-554,-1120,292
1749,2875,4477,-605,-1072,247
1764,2804,4501,-598,-1036,112
1803,2770,4588,-562,-994,-30
1827,2713,4563,-543,-938,-160
1871,2485,4549,-568,-897,-264
1859,2238,4419,-642,-883,-296
1881,2307,4502,-742,-908,-274
1983,2385,4760,-804,-912,-295
2045,2397,4889,-850,-870,-352
2083,2405,4779,-818,-835,-422
2231,2701,5104,-811,-838,-493
2331,2681,5448,-830,-769,-613
2339,2430,5314,-861,-647,-714
2442,2125,5187,-943,-556,-773
2538,1473,5252,-1037,-495,-808
2537,1183,5463,-1078,-418,-769
2556,1319,5501,-1026,-301,-747
2460,1178,5310,-989,-170,-786
2460,1178,5310,-989,-170,-786
2371,1068,5010,-965,-78,-803
2379,1171,4858,-973,-37,-807
2362,963,4892,-993,-18,-854
2359,597,4948,-981,8,-889
2362,280,4937,-1012,59,-876
2362,-3,4927,-1010,103,-846
2412,-154,4966,-1004,140,-796
2465,-217,5170,-954,187,-751
2574,-93,5369,-883,280,-715
2519,-136,5334,-813,416,-724
2326,-170,5106,-711,544,-733
2242,-136,4758,-614,625,-742
2128,-209,4711,-553,650,-759
2108,-84,4757,-390,661,-776
2024,-305,4674,-297,697,-805
1856,-515,4586,-176,723,-802
1802,-453,4463,-58,735,-758
1810,-391,4446,-18,737,-703
1756,-332,4466,1,749,-646
1748,-279,4513,-15,784,-587
1670,-429,4771,34,836,-563
1514,-366,4185,175,929,-539
1253,-465,3767,-80,928,-427
1151,-136,4039,-72,871,-345
1170,-101,3946,12,863,-371
1080,-416,3803,58,820,-392
1055,-455,3622,63,750,-323
1158,-277,3656,7,649,-235
1285,-333,3952,-106,585,-171
1343,-400,4186,-192,579,-87
1349,-216,4259,-205,615,-1
1288,-171,4169,-191,671,30
1122,-261,4095,-134,705,36
987,-229,3999,-34,734,48
860,-311,3814,98,751,47
727,-406,3643,197,734,75
597,-240,3460,226,697,140
606,-69,3394,252,644,185
642,-145,3432,303,583,179
679,-267,3575,322,532,209
812,-53,3788,358,506,271
918,217,3983,424,517,300
912,365,4076,424,564,319
845,524,4045,450,614,326
725,495,3848,450,662,318
571,275,3619,454,678,316
461,80,3492,491,649,336
368,197,3386,527,609,389
336,493,3321,561,560,423
400,697,3307,650,486,407
480,710,3435,643,423,387
521,670,3623,579,395,392
517,597,3554,578,395,397
501,351,3410,527,388,432
476,260,3417,468,357,516
509,400,3420,468,332,602
503,533,3424,499,312,640
490,775,3479,527,292,659
531,1079,3415,612,284,629
517,1008,3355,651,268,562
468,964,3377,649,242,545
454,1217,3383,658,220,554
468,1345,3299,669,198,517
449,1096,3281,607,163,495
455,1138,3361,520,127,559
494,1267,3398,474,105,605
478,1269,3463,456,84,614
426,1491,3469,478,74,617
392,1798,3310,521,67,582
392,1798,3310,521,67,582
371,1741,3133,497,22,513
320,1640,3178,392,-41,505
301,1826,3318,278,-96,535
362,1883,3533,270,-127,522
383,1668,3543,325,-133,490
347,1299,3426,327,-148,504
335,1326,3488,293,-188,598
415,1665,3558,285,-214,665
407,1933,3617,291,-239,659
481,2377,3732,277,-266,630
609,2742,3907,270,-283,535
681,2728,4125,233,-279,400
669,2440,4236,240,-253,277
652,2041,4159,231,-227,226
649,1657,4174,154,-220,259
638,1568,4278,103,-220,338
598,1916,4423,103,-208,405
568,2267,4372,161,-176,380
571,2214,4181,207,-158,295
577,1893,4121,209,-186,241
629,1935,4273,189,-225,259
790,2541,4413,245,-251,246
965,2710,4455,251,-251,130
1070,2426,4621,172,-239,32
1152,2222,4798,112,-202,4
1143,2175,4882,57,-138,14
1093,2190,4790,-6,-62,33
994,2008,4716,-37,-9,32
886,1867,4519,-42,22,43
847,1913,4428,-94,28,77
850,2034,4491,-75,18,62
829,2113,4395,-72,26,21
867,2052,4407,-32,25,-46
870,1809,4361,3,35,-117
883,1600,4244,-9,48,-146
951,1439,4236,-116,47,-113
942,1492,4341,-141,45,-65
958,1553,4300,-133,64,-41
997,1498,4333,-156,88,-27
1014,1541,4352,-122,109,-34
953,1504,4252,-107,144,-53
903,1532,4145,-88,164,-66


-112,-1023,4435,399,550,305
-156,-1073,4451,385,538,371
-187,-1059,4406,444,543,428
-207,-1093,4264,516,559,467
-262,-1326,4111,575,575,492
-420,-1478,3950,649,589,546
-635,-1201,3735,791,592,616
-723,-642,3443,970,573,643
-767,-192,3227,1095,512,597
-747,-55,3107,1096,420,536
-648,-146,3108,1025,309,510
-460,-336,3269,945,203,524
-246,-520,3507,858,136,592
-114,-520,3639,804,116,700
-29,-467,3718,782,128,804
-119,-446,3799,843,151,866
-305,-31,3786,947,198,940
-437,683,3440,1070,253,959
-534,1255,2994,1102,255,889
-616,1336,2539,997,179,772
-577,832,2641,826,35,665
-591,95,3010,756,-67,626
-623,-221,2905,815,-108,692
-500,-10,2681,904,-181,805
-297,287,2869,961,-290,886
-130,408,3168,947,-344,949
-52,405,3293,937,-345,1000
-51,644,3455,992,-330,1058
-131,1257,3177,1106,-296,1075
-227,1813,2773,1047,-299,1042
-265,2039,2629,925,-369,954
-246,1671,2502,783,-463,844
-364,1094,2832,642,-576,794
-405,956,2974,669,-628,810
-323,967,2805,753,-669,829
-207,1097,2763,823,-752,870
-45,1394,2800,810,-844,930
137,1811,2985,757,-930,980
368,2236,3474,639,-975,999
473,2145,3845,547,-924,941
366,2059,3662,610,-868,884
302,2423,3572,667,-858,838
251,2547,3589,705,-870,724
211,2124,3492,647,-873,643
218,1522,3365,536,-897,681
231,1273,3297,428,-948,821
273,1787,3293,376,-1005,967
372,2676,3308,438,-1060,973
608,3152,3339,524,-1115,806
815,2900,3617,508,-1148,615
939,2627,3767,458,-1142,538
1020,2811,3837,374,-1132,551
960,3145,3951,255,-1126,552
901,3509,3935,127,-1110,509
905,3218,3747,11,-1111,398
927,2559,3789,-139,-1151,349
939,2563,3935,-249,-1186,398
993,3102,4126,-278,-1193,407
1085,3624,4171,-251,-1174,311
1085,3624,4171,-251,-1174,311
1160,3764,4074,-266,-1164,151
1255,3533,4184,-380,-1170,20
1359,3131,4353,-553,-1158,-46
1358,2735,4519,-712,-1130,-51
1295,2588,4439,-818,-1072,-16
1277,2693,4123,-872,-1034,2
1347,2802,3861,-916,-1056,-31
1435,2694,3763,-1004,-1113,-100
1580,2316,3747,-1108,-1178,-164
1778,1830,3850,-1244,-1248,-171
1968,1659,4183,-1425,-1301,-103
2162,1876,4694,-1534,-1311,-42
2237,2148,4973,-1547,-1230,-79
2201,2084,4749,-1482,-1125,-215
2211,2198,5048,-1427,-1075,-361
2270,2239,5319,-1316,-954,-545
2219,1758,4935,-1199,-775,-724
2117,1275,4576,-1233,-685,-757
2132,1211,4598,-1324,-675,-681
2219,1042,4499,-1370,-666,-638
2256,757,4592,-1406,-684,-619
2413,774,4914,-1405,-673,-594
2602,729,5067,-1401,-600,-609
2673,660,5157,-1454,-506,-621
2766,755,5332,-1520,-401,-639
2856,711,5610,-1444,-276,-750
2761,402,5520,-1316,-104,-887
2615,-53,5131,-1282,43,-947
2541,-349,4960,-1260,97,-918
2598,-331,5104,-1251,118,-831
2662,-294,5297,-1230,174,-771
2682,-524,5260,-1184,269,-741
2562,-801,5151,-1106,362,-699
2507,-711,5075,-988,433,-636
2544,-509,5060,-904,500,-604
2518,-423,5123,-840,569,-612
2530,-395,5170,-738,650,-643
2531,-832,5096,-624,757,-701
2380,-1523,4905,-495,862,-693
2227,-1675,4730,-366,939,-563
2102,-1322,4538,-248,990,-413
2042,-871,4402,-169,1013,-331
1975,-664,4319,-124,1016,-334
1868,-765,4442,-46,1014,-378
1789,-863,4452,-1,1050,-388
1630,-969,4460,43,1096,-372
1497,-792,3838,19,1151,-320
1339,-971,3549,-51,1075,-307
1275,-1320,3958,-40,989,-266
1295,-1260,4045,-36,984,-154
1307,-944,3946,-56,985,-28
1259,-719,3921,-71,963,46
1097,-712,3862,-69,943,86
974,-738,3734,-42,923,121
882,-640,3687,18,879,143
882,-489,3690,82,832,143
872,-712,3699,141,790,112
839,-1016,3781,157,760,140
868,-843,3903,206,743,230
906,-580,3865,243,755,286
889,-714,3803,263,764,307
817,-853,3709,305,758,359
781,-669,3581,289,742,458
772,-399,3600,344,697,502
777,-244,3732,415,664,488
744,-141,3719,454,665,456
682,-143,3630,488,661,413
681,-153,3592,504,638,399
719,-130,3678,504,613,409
719,-130,3678,504,613,409
717,-223,3793,515,604,422
655,-395,3730,536,619,455
603,-572,3517,527,625,520
466,-569,3431,503,597,615
350,-297,3383,544,555,697
292,-87,3281,630,515,709
212,170,3205,666,460,706
309,629,3278,634,395,709
403,672,3484,629,342,636
444,304,3564,637,323,594
474,241,3509,599,313,657
496,623,3513,534,292,746
521,925,3502,492,272,760
502,759,3391,428,257,742
390,582,3251,354,222,781
323,504,3103,331,166,825
264,456,3044,332,96,855
258,644,3139,422,19,852
369,793,3122,523,-28,803
410,714,3175,555,-77,761
427,984,3363,536,-110,779
473,1367,3373,533,-113,753
439,1201,3319,553,-128,659
388,937,3298,533,-156,640
339,1112,3366,540,-197,676
266,1598,3441,584,-230,670
258,1916,3386,646,-257,577
275,2060,3425,644,-318,479
352,2329,3646,552,-388,421
444,2287,3937,429,-430,348
468,1907,4088,323,-436,300
456,1720,4239,286,-437,307
436,1979,4295,314,-420,322
391,2237,4234,326,-408,278
441,2472,4380,296,-428,209
626,2581,4650,257,-437,108
703,2105,4756,187,-411,0
635,1550,4753,82,-381,1
617,1447,4730,10,-363,92
628,1598,4713,-15,-357,158
600,1839,4726,2,-364,158
693,2132,4842,63,-375,98
881,2149,4952,173,-373,-30
995,1783,4986,232,-357,-145
1069,1499,5098,227,-329,-172
1135,1470,5181,198,-272,-153
1213,1474,5198,176,-198,-143
1230,1466,5115,142,-122,-145
1170,1410,5080,124,-58,-155
1172,1356,4963,115,1,-163
1149,1220,4839,110,48,-174
1152,1160,4824,110,81,-175
1197,1120,4815,132,123,-190
1174,1030,4749,141,168,-205
1094,1052,4639,106,213,-187
1035,1142,4555,97,243,-183
1004,1159,4551,101,267,-208
940,1171,4560,111,299,-244
889,1173,4469,156,339,-295
802,1099,4342,201,368,-340
774,1042,4300,279,372,-364
744,1104,4185,321,377,-363
753,1222,4173,300,374,-344
698,1342,4113,367,351,-374
557,1184,3956,250,347,-371
649,1104,3864,63,327,-308
724,1133,4040,-48,277,-261
724,1165,4283,-127,264,-237
787,1157,4464,-179,297,-215
787,1157,4464,-179,297,-215


-273,-87,3623,902,114,673
-165,-35,3660,922,83,627
-132,-290,3594,853,86,625
-132,-521,3462,764,90,696
-265,-569,3277,704,77,801
-339,-338,3069,711,36,887
-300,156,3093,841,-48,885
-258,617,3358,977,-98,808
-232,679,3142,1072,-87,702
-304,225,2768,1059,-118,623
-433,-322,2715,981,-206,646
-388,-463,2825,982,-294,742
-204,-529,2925,1055,-359,816
-136,-632,3055,1119,-399,908
-143,-12,3061,1201,-417,1045
-58,1432,3055,1300,-441,1109
78,2585,3053,1392,-463,955
140,2363,2912,1300,-481,687
70,1193,2860,995,-511,554
20,276,3023,746,-558,629
-75,277,3195,772,-602,790
-79,634,2950,882,-616,903
-51,628,2771,1048,-701,927
145,783,2943,1189,-813,980
320,1909,3283,1252,-891,1064
529,3420,3694,1268,-876,1018
828,3819,3334,1237,-823,796
960,2947,3212,944,-866,609
823,1841,3741,472,-913,631
550,1510,4124,272,-878,760
311,1692,3776,339,-774,818
311,1692,3776,339,-774,818
104,1674,3078,481,-746,771
41,1712,2713,625,-858,717
251,1832,2862,717,-1030,679
573,2144,3469,746,-1164,660
862,3438,3990,744,-1193,652
1133,4172,4178,686,-1126,477
1196,3510,4114,527,-1036,245
1007,2748,3982,376,-980,159
797,2805,3783,279,-958,189
681,3069,3433,225,-975,179
657,2842,3224,104,-1063,141
794,2688,3442,-50,-1200,171
1090,2854,3903,-199,-1298,226
1300,2936,4284,-310,-1313,235
1362,2984,4479,-378,-1246,215
1331,3143,4211,-387,-1150,155
1311,3453,4009,-361,-1118,40
1326,3346,3836,-401,-1105,-112
1322,2856,3734,-515,-1116,-226
1331,2504,3777,-627,-1160,-258
1393,2258,3904,-766,-1202,-234
1498,2126,4221,-882,-1229,-182
1588,2151,4411,-933,-1212,-142
1696,2328,4366,-971,-1171,-127
1815,2465,4340,-1003,-1149,-163
1922,2527,4405,-1056,-1141,-238
2020,2552,4676,-1120,-1126,-337
2085,2374,4759,-1124,-1078,-462
2110,2326,4711,-1120,-1043,-563
2189,2102,4742,-1151,-999,-660
2289,1455,4801,-1201,-945,-724
2381,1255,5006,-1240,-887,-685
2403,1373,5013,-1224,-793,-638
2436,1588,4986,-1216,-704,-626
2541,1611,5036,-1199,-616,-679
2568,1177,5000,-1212,-514,-758
2510,802,4964,-1209,-426,-790
2440,706,4843,-1181,-345,-789
2347,527,4634,-1177,-279,-792
2291,393,4528,-1170,-257,-781
2357,390,4624,-1144,-253,-773
2480,204,4843,-1107,-228,-790
2538,28,5007,-1128,-162,-772
2512,113,5081,-1131,-80,-728
2499,354,5081,-1123,7,-703
2586,258,5121,-1088,88,-751
2620,-160,5258,-1035,174,-810
2571,-495,5183,-979,283,-811
2438,-625,4949,-985,380,-744
2414,-570,4828,-965,427,-658
2419,-636,4881,-954,453,-596
2426,-860,5001,-923,495,-538
2366,-919,5150,-822,564,-470
2286,-787,5007,-657,662,-431
2236,-849,4835,-519,747,-435
2199,-954,4793,-359,799,-443
2205,-846,4740,-260,850,-409
2140,-693,4691,-208,897,-370
2063,-591,4764,-137,942,-349
1958,-629,4634,-33,1014,-343
1800,-459,3869,-104,1039,-310
1646,-591,4071,-180,948,-309
1598,-788,4435,-164,916,-293
1535,-1049,4430,-157,946,-246
1386,-1183,4223,-169,974,-145
1327,-919,4095,-176,961,-25
1321,-766,4098,-155,927,32
1299,-846,4071,-180,913,75
1198,-1032,3990,-173,910,126
1198,-1032,3990,-173,910,126
1103,-1016,3780,-64,883,174
1136,-589,3834,17,820,219
1272,-201,4068,103,772,194
1300,-113,4188,118,776,144
1244,-55,4079,75,792,125
1148,-416,4303,103,783,103
1108,-905,4346,266,819,159
1034,-787,3800,273,866,308
804,-592,3539,188,830,407
645,-356,3661,232,764,433
639,-221,3711,348,732,398
682,-276,3704,417,718,368
684,-197,3751,433,700,382
678,-30,3814,475,698,392
613,-95,3766,535,710,376
511,-341,3627,564,721,376
516,-454,3547,599,707,413
527,-388,3602,628,683,469
536,-217,3631,666,679,516
479,-333,3534,706,682,527
387,-13,3476,786,645,583
404,871,3474,865,598,599
430,972,3495,840,564,488
430,673,3606,788,529,411
482,821,3718,783,510,405
409,843,3637,765,515,388
320,787,3371,712,511,391
355,559,3272,659,457,409
358,284,3429,588,384,484
346,455,3511,542,343,605
329,638,3366,542,324,666
291,620,3182,537,286,682
295,714,3160,543,222,691
344,789,3282,566,167,675
342,964,3372,601,141,655
402,1146,3331,627,139,619
403,1123,3363,615,124,584
359,1225,3415,579,106,591
282,1257,3398,560,87,597
219,1253,3307,537,60,616
160,1396,3158,486,17,642
135,1509,3032,451,-48,624
110,1398,3128,414,-140,563
171,1440,3548,426,-208,513
315,1737,3722,523,-209,456
442,1699,3736,581,-194,375
489,1227,3803,544,-187,355
414,1214,3887,480,-176,459
311,1777,3806,458,-165,545
264,2404,3747,441,-176,521
292,2673,3858,432,-205,396
288,2278,3997,422,-217,241
231,1744,3942,414,-210,176
238,1673,3788,387,-226,212
310,1702,3846,306,-283,261
368,1834,4187,231,-332,311
460,2129,4442,202,-331,328
487,2283,4531,202,-300,282
497,2370,4500,209,-267,216
513,2239,4394,191,-254,149
545,2001,4455,143,-267,118
590,1897,4567,107,-269,118
629,1800,4582,86,-252,116
665,1838,4615,64,-245,133
758,2088,4709,35,-240,145
797,2161,4780,-9,-214,121
781,2108,4777,-59,-177,87
739,1862,4702,-85,-146,41
739,1862,4702,-85,-146,41
695,1510,4643,-95,-126,17
687,1355,4585,-85,-111,36
734,1380,4503,-73,-98,66
763,1459,4496,-65,-98,74
803,1602,4494,-56,-89,54
866,1590,4484,-65,-73,9
919,1436,4524,-89,-56,-23
865,1309,4595,-98,-34,-30
820,1403,4540,-89,5,-27
841,1360,4440,-62,34,-50
847,1253,4411,-65,54,-63
806,1303,4425,-64,74,-58
795,1333,4370,-42,102,-67
720,1217,4226,-28,126,-83
662,1241,4115,-62,128,-59
684,1295,4106,-89,110,-41
701,1224,4164,-71,94,-47
737,1214,4115,-35,86,-44
804,1254,4110,-96,81,-9
871,1284,4189,-148,75,12
916,1266,4265,-174,85,17
894,1167,4306,-196,109,20
854,1266,4267,-149,129,27
799,1462,4184,-205,154,40
763,1491,4161,-286,166,28
734,1344,4107,-322,157,-8
722,1182,4129,-388,148,-14
740,1150,4232,-430,140,-5
705,1212,4338,-470,151,7


-496,-689,3686,960,378,568
-563,-549,3583,1014,345,595
-563,-362,3476,1047,309,626
-563,-362,3476,1047,309,626
-525,-299,3368,1075,264,643
-473,-417,3372,1074,206,666
