acc_X,acc_Y,acc_Z,gyro_X,gyro_Y,gyro_Z
-159,-37,3896,-491,-60,-386
-79,19,3982,-536,-126,-421
58,78,4291,-602,-171,-460
232,40,4562,-571,-176,-535
373,-113,4811,-489,-146,-626
393,-235,4922,-479,-63,-661
326,-475,4785,-509,50,-663
257,-742,4307,-517,127,-653
220,-1187,4134,-561,120,-614
217,-1497,4259,-646,90,-496
177,-1615,4385,-693,105,-359
95,-1683,4232,-673,150,-251
51,-1594,3949,-623,161,-159
67,-1550,3838,-617,128,-105
38,-1592,4007,-628,77,-68
8,-1340,4199,-607,52,-9
115,-999,4362,-516,53,-29
137,-819,4443,-406,72,-127
149,-451,4370,-231,67,-248
182,120,4367,-72,29,-394
204,311,4450,-47,38,-588
236,-259,4582,-26,54,-830
54,-1226,4538,-90,112,-901
-84,-1916,4278,-185,146,-760
-163,-2077,3914,-263,119,-534
-187,-1879,3881,-357,27,-314
-113,-1656,4110,-391,-55,-156
26,-1418,4340,-404,-99,-38
169,-926,4537,-474,-97,69
169,-926,4537,-474,-97,69
295,-429,4700,-480,-66,55
366,-347,4908,-405,-10,-96
332,-584,4968,-265,83,-281
179,-872,4779,-106,192,-412
24,-1065,4406,18,264,-474
-110,-1215,4034,106,276,-486
-201,-1246,3819,146,229,-447
-222,-1092,3813,123,152,-373
-151,-993,3946,162,80,-340
-95,-896,3887,299,15,-371
-53,-957,4048,192,-25,-361
56,-1085,4387,183,-64,-368
146,-1274,4874,204,-36,-350
182,-1211,5109,279,93,-297
149,-1198,5088,279,285,-235
15,-1019,4216,523,384,-228
-93,-855,3875,447,375,-200
-209,-781,3955,208,363,-152
-223,-667,3536,309,263,-178
-129,-825,3688,352,96,-226
-88,-1101,4146,306,-7,-225
-67,-1307,4332,308,-11,-205
-74,-1459,4173,379,30,-184
-82,-1556,3776,448,53,-157
-100,-1697,3426,486,6,-133
-149,-1787,3304,478,-77,-68
-121,-1631,3199,483,-162,18
-75,-1468,3165,530,-260,54
-66,-1402,3293,611,-363,58
-19,-1214,3410,678,-431,104
64,-931,3417,760,-476,136
188,-840,3423,857,-525,116
258,-911,3505,888,-560,108
263,-880,3497,875,-568,157
244,-799,3451,865,-574,203
265,-829,3444,930,-601,199
258,-928,3491,974,-627,207
194,-986,3514,994,-642,254
226,-976,3471,1036,-645,313
291,-1040,3463,1097,-653,344
248,-1103,3487,1136,-661,403
227,-1008,3436,1175,-652,510
271,-756,3211,1285,-669,600
376,-548,3108,1275,-738,687
485,-372,3227,1160,-823,791
617,-230,3484,1066,-896,863
720,-252,3817,1064,-935,870
729,-441,4041,1131,-920,866
688,-549,4019,1227,-877,925
723,-296,3845,1248,-846,1079
833,279,3657,1167,-848,1249
945,844,3538,1045,-896,1324
996,1255,3598,911,-960,1294
1084,1393,3878,854,-1023,1168
1183,1392,4124,917,-1045,997
1301,1279,4356,981,-1026,841
1423,1081,4505,1025,-986,727
1453,953,4522,1000,-919,696
1386,967,4385,916,-857,732
1377,1111,4213,809,-826,787
1381,1210,4093,709,-828,808
1379,1256,4109,603,-850,809
1422,1355,4260,534,-871,805
1525,1449,4514,525,-877,766
1589,1549,4720,503,-843,723
1578,1776,4675,462,-765,689
1561,1942,4414,470,-701,590
1530,1782,4173,456,-687,440
1530,1782,4173,456,-687,440
1477,1422,4301,376,-695,339
1453,1131,4278,386,-699,281
1457,971,4335,367,-704,324
1577,1179,4312,357,-701,411
1708,1473,4388,344,-707,434
1796,1548,4538,321,-699,392
1870,1518,4628,306,-671,347
1927,1641,4679,238,-630,358
2001,1849,4640,137,-581,367
2051,1902,4611,55,-546,305
2068,1693,4691,1,-523,214
2087,1418,4756,-30,-489,164
2131,1272,4805,-68,-451,173
2142,1331,4758,-120,-398,209
2197,1506,4626,-159,-355,206
2236,1510,4678,-157,-347,134
2263,1247,4821,-164,-322,72
2338,1098,4887,-178,-272,60
2366,1066,4947,-202,-211,66
2335,1060,4969,-234,-132,62
2233,989,4811,-232,-43,37
2158,902,4455,-231,15,20
2110,871,4235,-274,15,33
2178,876,4308,-335,-23,58
2258,905,4558,-415,-42,76
2241,902,4740,-487,-11,92
2176,960,4633,-485,58,88
2069,1002,4311,-463,126,45
1943,963,4025,-436,146,-26
1893,803,3929,-382,112,-115
1858,602,3992,-309,63,-171
1864,488,4175,-246,38,-182
1888,426,4242,-144,55,-191
1873,411,4224,-80,88,-186
1909,372,4243,-47,117,-167
1911,423,4198,-41,159,-129
1862,606,4018,-76,211,-92
1845,839,3750,-55,228,-113
1780,1029,3540,-21,199,-177
1821,1067,3495,90,131,-303
1896,982,3681,182,47,-420
1844,767,3918,223,24,-505
1804,601,3941,359,50,-595
1660,470,3841,491,79,-660
1538,312,3694,665,72,-685
1895,246,3770,704,15,-637
1980,113,4351,512,27,-519
1976,-67,4415,397,147,-393
1898,-225,4357,234,278,-198
1659,-26,4240,35,401,64
1453,505,3952,-179,487,306
1569,1043,3586,-361,526,411
1607,1338,3226,-377,481,325
1663,1400,3342,-366,346,163
1760,1528,3540,-438,247,18
1840,2059,3066,-658,213,-100
2091,2192,3923,-1571,135,-154
1898,1979,4310,-881,69,-645
2043,1731,4203,-305,50,-1091
2094,1126,4994,-325,106,-1281
2008,680,4986,-4,249,-1441
1900,359,4956,-73,411,-1377
1953,56,5534,-340,595,-1156
1692,83,5533,-123,857,-1037
1380,182,4953,141,1114,-982
1103,161,4046,312,1259,-945
850,39,3171,361,1229,-877
634,-129,2774,329,1042,-764
577,-273,2724,276,780,-613
577,-273,2724,276,780,-613
511,-484,3046,134,526,-409
469,-630,3431,111,325,-182
624,-627,3651,154,179,63
884,-531,3881,94,69,354
1088,-228,4132,-66,2,669
1297,130,4585,-310,-15,941
1407,379,4970,-415,37,1088
1402,547,5045,-435,155,1148
1366,603,4914,-466,289,1158
1323,548,4734,-549,402,1173
1271,472,4681,-607,466,1204
1290,496,4679,-597,502,1231
1448,648,4742,-726,546,1279
1394,807,4819,-915,616,1281
1401,911,4690,-1070,691,1198
1357,824,4632,-1238,728,1095
1365,584,4445,-1238,771,993
1218,544,3689,-1194,789,913
993,501,3235,-1311,657,851
1019,413,3307,-1376,420,777
1023,264,3642,-1380,202,693
968,88,4056,-1335,63,614
971,-94,4506,-1246,4,551
946,-167,4806,-1109,15,500
759,-86,4946,-1209,96,496
-564,218,5058,-1933,206,568
1607,105,5433,-2323,305,523
1618,-352,4974,-1636,518,183
947,-891,4472,-1350,658,54
795,-1288,4198,-1425,681,160
681,-1524,3957,-1331,667,326


199,-582,4310,-300,251,213
-103,-204,3750,-339,224,316
-264,-71,3567,-374,120,309
-252,205,3689,-395,-13,291
-105,384,4087,-361,-131,215
15,289,4382,-231,-183,77
107,73,4486,-151,-178,-19
255,-127,4552,-128,-155,-54
357,-332,4698,-103,-122,-52
345,-419,4782,-50,-67,-14
263,-306,4689,-42,8,58
174,-150,4540,-17,64,106
45,43,4452,72,84,113
7,311,4359,177,88,79
7,465,4303,222,82,15
8,512,4333,233,64,-51
-30,589,4395,239,46,-107
-32,783,4478,223,37,-146
114,1065,4669,221,23,-200
238,1134,4859,244,26,-291
282,975,4920,248,59,-372
320,803,4840,238,97,-406
307,752,4781,170,131,-400
266,874,4714,111,156,-390
220,991,4559,70,178,-422
126,919,4348,7,181,-486
28,710,4087,-44,156,-558
-40,524,3939,-113,96,-602
18,471,3976,-146,20,-630
117,408,4138,-132,-37,-683
166,324,4371,-130,-61,-723
224,374,4594,-136,-42,-733
223,363,4600,-124,16,-768
114,251,4394,-96,75,-816
20,212,4200,-93,98,-846
17,114,4105,-123,98,-872
2,-109,4073,-138,82,-908
-64,-254,4092,-174,60,-899
-43,-237,4123,-236,45,-852
71,-243,4125,-231,26,-842
101,-326,4132,-249,3,-832
128,-328,4176,-289,-13,-796
217,-271,4251,-303,-26,-774
201,-260,4267,-297,-25,-784
152,-305,4182,-279,-11,-810
145,-470,4088,-248,-9,-855
91,-610,4057,-222,-22,-873
112,-582,4101,-214,-48,-849
202,-557,4092,-173,-71,-846
182,-624,4049,-180,-90,-852
169,-740,4191,-207,-104,-837
322,-749,4275,-240,-93,-831
362,-1032,4323,-111,-89,-881
290,-1182,4140,48,-93,-866
287,-1160,4088,-28,-105,-772
273,-1149,4220,-200,-113,-677
201,-1159,4324,-284,-105,-608
185,-1071,4372,-279,-91,-558
252,-905,4304,-305,-62,-528
287,-883,4128,-341,-50,-549
271,-1031,4065,-337,-80,-586
290,-1245,4111,-336,-116,-600
323,-1446,4196,-329,-143,-584
355,-1539,4299,-307,-154,-533
472,-1594,4362,-279,-140,-478
496,-1723,4408,-252,-114,-438
393,-1805,4455,-225,-71,-370
447,-1783,4367,-135,-19,-307
495,-1917,4209,-30,14,-292
445,-2096,4206,47,31,-260
445,-2096,4206,47,31,-260
423,-2108,4253,122,48,-186
458,-2032,4204,214,76,-116
397,-1947,4119,306,93,-68
366,-1778,4044,358,97,-7
446,-1585,3997,415,89,34
455,-1531,3970,477,73,42
317,-1549,3962,483,60,63
152,-1471,3898,506,53,108
101,-1326,3657,584,38,138
57,-1244,3443,621,-12,158
75,-1183,3341,649,-96,181
192,-1179,3346,702,-194,189
260,-1214,3585,728,-283,211
322,-1190,3860,740,-319,260
370,-1042,4023,761,-305,331
411,-783,4082,777,-266,393
423,-581,4062,791,-210,404
333,-415,3954,803,-156,391
264,-305,3720,804,-123,370
74,-250,3281,732,-142,357
-114,-964,3391,236,-183,439
202,-984,3672,292,-275,586
262,-292,3720,472,-365,703
274,-63,3678,534,-396,688
271,-27,3469,649,-423,606
309,-237,3501,752,-467,508
298,-438,3624,861,-496,448
299,-414,3711,889,-496,469
358,-129,3557,914,-502,514
460,148,3761,738,-526,583
646,273,4350,681,-491,595
668,513,3970,1042,-438,508
502,676,3313,1167,-456,436
410,646,3087,1056,-551,398
421,592,3218,991,-692,377
497,600,3584,966,-809,370
582,633,4052,881,-853,383
652,638,4418,883,-805,377
660,695,4271,983,-728,348
672,797,4102,1026,-686,339
720,958,3975,1028,-681,346
715,1118,3927,971,-704,365
720,1286,3937,882,-740,386
796,1423,3928,832,-779,377
906,1416,3839,808,-810,328
977,1210,3783,754,-851,277
1021,955,3830,680,-895,261
1056,804,3950,613,-925,284
1135,830,4116,552,-926,330
1254,1024,4104,587,-907,343
1331,1184,4008,598,-896,331
1386,1291,3972,538,-907,331
1509,1423,4140,463,-925,330
1660,1463,4228,461,-933,291
1656,1314,4330,436,-922,256
1669,1188,4290,394,-897,262
1716,1194,4290,374,-877,275
1783,1229,4350,362,-847,264
1777,1265,4405,357,-806,246
1778,1330,4403,361,-759,220
1779,1332,4332,364,-714,185
1752,1334,4269,354,-692,168
1824,1352,4235,347,-674,158
1809,1269,3959,367,-685,136
1827,1146,4004,277,-737,159
1951,1166,4223,197,-773,213
2077,1270,4491,143,-767,248
2113,1362,4632,117,-715,253
2113,1362,4632,117,-715,253
2133,1412,4630,120,-641,228
2217,1399,4570,143,-574,189
2227,1328,4482,156,-529,154
2239,1309,4459,125,-506,162
2333,1372,4555,79,-486,189
2417,1481,4627,72,-459,191
2502,1437,4707,44,-411,174
2530,1293,4755,28,-348,153
2498,1178,4753,96,-288,121
2413,1192,4668,163,-219,99
2362,1247,4510,126,-149,96
2376,1293,4407,76,-108,89
2418,1337,4197,36,-88,65
2265,993,4192,-98,-93,47
2105,959,4108,15,-128,58
2227,1019,4054,-74,-140,135
2297,1013,4149,-122,-155,161
2300,1026,4253,-87,-147,158
2292,1105,4293,-49,-105,155
2220,1140,4060,8,-62,115
2094,1069,3929,37,-46,67
2032,960,3924,28,-28,41
2064,926,3918,39,-7,29
2055,953,3922,44,15,24
2045,981,3888,61,44,5
2063,969,3818,65,66,-9
2064,928,3775,68,70,-17
2090,883,3766,70,65,-15
2106,851,3797,54,63,0
2122,869,3828,22,69,28
2148,898,3805,-4,83,51
2106,911,3689,-16,89,63
2026,944,3584,-42,76,74
1960,998,3558,-69,50,78
1929,1079,3585,-80,26,73
1897,1072,3623,-69,13,40
1952,1008,3681,-51,6,9
2033,969,3762,-27,5,-8
2034,912,3783,-4,17,-29
2005,828,3734,-7,34,-32
1991,814,3681,-15,42,-20
1989,848,3605,-27,38,-13
2000,875,3595,-48,18,-4
2036,908,3664,-60,0,-3
2067,912,3745,-61,-14,-7
2105,919,3845,-53,-10,-10
2105,956,3887,-30,11,-20
2062,936,3814,0,38,-42
2002,902,3675,34,52,-68
2001,892,3577,62,39,-84
2036,900,3598,66,9,-90
2035,879,3688,46,-12,-83
2030,833,3775,0,-16,-58
2053,762,3834,-26,-4,-34
2021,713,3800,-34,12,-6
1991,802,3729,-60,24,33
2056,961,3719,-102,22,65
2067,1034,3742,-125,12,64
2034,1042,3732,-160,7,59
2014,993,3813,-192,6,48


483,-335,4517,-205,53,-546
442,-449,4575,-231,77,-514
397,-340,4602,-256,106,-461
353,-145,4552,-261,138,-449
293,-96,4392,-236,164,-494
199,-216,4258,-202,160,-557
165,-335,4209,-176,136,-592
171,-369,4199,-185,113,-596
118,-435,4223,-216,92,-598
118,-435,4223,-216,92,-598
75,-474,4231,-233,75,-594
133,-509,4227,-239,58,-595
139,-651,4284,-219,37,-604
159,-760,4403,-192,26,-582
298,-585,4430,-229,53,-531
366,-580,4324,-225,81,-549
337,-845,4205,-136,75,-591
290,-968,4165,-138,65,-572
265,-834,4180,-209,63,-520
303,-637,4187,-260,57,-500
329,-627,4195,-259,42,-528
289,-756,4262,-263,28,-558
273,-830,4292,-269,31,-549
315,-881,4276,-286,43,-532
300,-968,4176,-313,52,-527
270,-1021,4068,-324,36,-515
325,-1046,4132,-303,-3,-501
420,-1048,4386,-252,-36,-485
500,-947,4585,-208,-18,-459
484,-866,4601,-199,37,-448
382,-853,4438,-151,94,-463
341,-931,4223,-98,122,-489
289,-1084,4103,-80,119,-502
282,-1154,4145,-86,92,-474
313,-1110,4282,-79,72,-432
301,-968,4405,-41,72,-403
294,-822,4467,5,90,-399
316,-720,4443,32,114,-414
291,-823,4526,47,147,-437
254,-801,4505,0,203,-430
217,-699,4326,-30,248,-430
201,-705,4058,-2,243,-450
174,-816,3906,-24,186,-463
149,-954,3999,-75,114,-450
142,-993,4081,-120,69,-420
180,-981,4135,-149,43,-392
223,-954,4285,-126,15,-381
298,-854,4415,-95,6,-364
351,-814,4401,-102,18,-359
307,-895,4379,-122,18,-365
273,-920,4529,-104,27,-358
290,-885,4379,-62,62,-372
284,-1024,4171,-29,69,-413
313,-1299,4126,-10,45,-436
338,-1550,4160,58,15,-426
364,-1690,4192,110,12,-376
378,-1819,4034,157,18,-312
376,-1963,3950,262,-9,-249
388,-1999,4077,361,-38,-160
402,-1909,4145,373,-20,-68
343,-1730,4174,412,15,-4
333,-1435,4125,490,47,32
407,-1223,4035,580,67,23
417,-1268,3883,611,70,-5
366,-1455,3753,585,52,5
375,-1561,3650,523,23,65
349,-1621,3566,490,-20,133
319,-1589,3523,539,-86,200
332,-1409,3625,606,-148,269
348,-1187,3623,655,-180,317
280,-1020,3569,686,-206,332
266,-933,3665,770,-233,318
279,-814,3494,888,-256,283
188,-867,3634,770,-265,289
154,-700,3674,816,-269,287
209,-501,3565,845,-274,279
261,-491,3542,842,-310,267
282,-559,3634,819,-351,285
287,-515,3769,779,-376,333
287,-515,3769,779,-376,333
290,-321,3824,766,-378,367
285,-130,3777,780,-374,355
265,-118,3663,787,-380,318
278,-310,3532,787,-408,283
296,-526,3530,779,-460,294
369,-462,3675,783,-513,351
498,-175,3766,816,-552,406
571,222,3660,760,-588,457
674,521,4216,661,-611,462
702,521,4249,742,-552,395
602,412,3847,773,-516,354
543,388,3784,703,-543,375
566,440,3926,648,-583,395
585,497,3953,643,-607,397
649,576,3948,627,-625,401
702,488,3906,608,-637,381
713,146,3745,606,-646,353
692,-131,3639,623,-675,373
744,-29,3696,626,-723,438
918,379,3987,641,-756,487
1106,775,4162,678,-746,468
1152,783,4142,703,-717,396
1112,595,4010,711,-700,352
1086,444,3945,665,-702,372
1097,506,4054,628,-720,423
1164,784,4132,606,-719,470
1236,917,4016,572,-714,469
1263,806,3958,481,-729,471
1298,659,3849,374,-748,486
1346,650,4072,336,-807,503
1520,923,5328,412,-751,481
1609,1043,4822,743,-531,370
1569,1099,3323,895,-484,311
1634,1111,3133,595,-681,357
1680,1107,4534,280,-844,425
1800,874,4750,460,-771,376
1758,687,4123,570,-673,368
1693,799,3779,492,-671,427
1732,1092,4014,406,-718,470
1827,1373,4306,381,-718,449
1864,1380,4397,404,-673,370
1848,1226,4210,433,-624,299
1874,1070,4043,415,-620,282
1842,883,4082,360,-636,296
1805,904,4205,311,-637,341
1886,1202,4242,311,-619,371
1934,1397,4275,306,-600,350
1931,1466,4171,299,-581,310
1934,1302,4015,249,-578,271
1945,961,3977,189,-603,256
2040,863,4163,139,-631,299
2163,1079,4511,100,-624,353
2235,1368,4644,133,-562,344
2254,1416,4492,153,-479,280
2177,1220,4334,159,-430,217
2195,1178,4141,142,-411,207
2182,1223,4144,116,-437,208
2218,1344,4332,86,-446,209
2253,1265,4362,69,-425,174
2194,1052,4363,60,-392,153
2197,1032,4307,54,-352,177
2204,1133,4198,50,-322,193
2215,1217,4145,38,-310,184
2256,1227,4155,26,-306,158
2253,1146,4172,6,-295,132
2257,1098,4157,-1,-277,117
2275,1034,4072,-15,-257,108
2258,940,4018,-49,-252,113
2253,957,4019,-92,-256,140
2253,957,4019,-92,-256,140
2279,1006,4052,-129,-257,159
2320,1021,4063,-133,-252,154
2368,963,4074,-151,-240,143
2355,875,4139,-170,-219,141
2337,902,4173,-189,-188,155
2339,952,4162,-213,-152,166
2331,908,4056,-216,-116,156
2317,846,3958,-217,-101,147
2321,800,3950,-215,-102,144
2322,779,3977,-200,-97,142
2318,798,4017,-197,-79,138
2355,827,4034,-189,-55,129
2416,835,4079,-183,-28,115
2447,812,4171,-168,0,97
2402,769,4114,-152,55,75
2334,726,3950,-155,106,63
2303,772,3888,-120,120,51
2312,790,3835,-88,123,24
2259,680,3789,-85,124,-1
2220,592,3757,-69,117,-7
2224,551,3753,-47,110,-2
2217,569,3712,-19,105,5
2234,629,3667,-35,101,20
2244,624,3726,-55,86,22
2283,638,3778,-40,79,15
2329,583,3838,-76,89,17
2316,457,3859,-99,111,24
2282,409,3793,-83,134,38
2281,442,3770,-79,146,68
2297,515,3748,-91,155,97
2270,583,3773,-114,168,114
2237,698,3725,-109,180,115
2200,703,3656,-134,182,97
2196,624,3701,-165,168,79
2230,551,3906,-167,154,76
2255,549,3965,-106,173,66
2206,450,3873,-86,211,61
2177,390,3786,-63,231,73
2153,392,3750,-74,233,106
2104,497,3750,-107,225,143
2130,622,3759,-151,218,159
2188,649,3802,-157,210,133
2213,560,3851,-125,206,91
2289,508,3927,-118,198,80
2374,523,4077,-140,197,88
2397,580,4231,-147,221,84
2405,595,4381,-145,272,58
2332,535,4336,-130,355,19
2239,429,4174,-128,428,-2
2171,343,4023,-115,460,-12


121,984,4243,262,76,-516
-180,688,3884,350,7,-613
-439,235,3821,104,-55,-583
-101,486,4175,-79,-101,-503
0,532,4228,-98,-113,-546
-46,308,4196,-102,-110,-611
-12,298,4206,6,-115,-681
-46,71,4245,22,-92,-750
-56,-114,4177,-7,-56,-769
-66,-225,4068,-53,-39,-753
12,-174,4153,-94,-49,-719
111,66,4336,-80,-62,-702
144,-70,4442,-56,-57,-723
180,-277,4398,-35,-33,-717
146,-169,4411,-6,-29,-684
179,44,4500,-15,-17,-665
176,111,4484,-43,0,-681
133,-15,4404,-97,2,-688
124,-206,4417,-159,-6,-673
109,-256,4520,-194,-17,-638
76,-206,4476,-199,-3,-622
40,-242,4417,-207,6,-626
105,-214,4384,-203,11,-623
143,-239,4381,-304,21,-630
127,-551,4340,-228,3,-637
170,-286,4363,-172,-17,-590
172,-86,4347,-216,-11,-592
167,-252,4371,-287,0,-623
178,-535,4427,-337,11,-627
155,-667,4295,-415,43,-589
79,-662,4164,-466,37,-541
27,-543,4168,-479,4,-499
34,-538,4245,-481,-10,-494
25,-720,4332,-437,-14,-508
42,-824,4284,-366,-1,-511
67,-921,4254,-307,6,-503
69,-834,4445,-217,5,-486
47,-500,4543,-118,35,-481
47,-500,4543,-118,35,-481
35,-400,4391,-90,77,-508
16,-659,4276,-108,81,-532
19,-884,4291,-121,64,-494
5,-965,4326,-130,46,-422
-12,-914,4396,-124,39,-351
26,-815,4454,-73,50,-327
99,-859,4470,-4,90,-350
134,-974,4355,-75,145,-363
71,-1207,4271,-48,155,-357
141,-1238,4223,24,138,-313
186,-1307,4270,8,121,-262
162,-1284,4302,-31,115,-192
146,-1127,4267,-38,115,-144
91,-1031,4298,-3,101,-137
116,-1025,4371,45,89,-147
179,-1180,4436,61,94,-135
132,-1354,4340,50,116,-80
63,-1411,4104,53,124,4
7,-1457,3969,74,90,78
-30,-1447,3939,135,44,128
-11,-1237,3936,252,6,159
-28,-995,3858,361,-16,150
-37,-941,3804,426,-46,111
-49,-1020,3867,461,-86,91
-60,-964,3872,505,-110,125
-9,-875,3724,522,-122,161
8,-935,3612,489,-153,204
-13,-922,3502,478,-189,266
17,-898,3411,499,-244,308
66,-936,3539,528,-303,340
48,-797,3505,555,-325,386
-3,-434,3373,579,-357,414
12,-153,3402,619,-403,385
-2,-245,3461,614,-434,320
-50,-500,3482,650,-470,301
-30,-428,3516,692,-507,363
6,-73,3603,710,-540,427
37,303,3535,735,-552,437
58,448,3476,744,-580,399
134,406,3508,747,-622,358
170,225,3621,730,-660,344
123,157,3625,717,-669,368
125,199,3511,720,-675,381
102,84,3479,708,-703,372
144,-42,3521,736,-742,355
249,94,3634,820,-775,337
325,438,3778,910,-792,294
422,680,3893,934,-789,235
479,728,3953,914,-773,193
513,723,3833,857,-757,198
550,545,3697,736,-773,240
555,335,3637,624,-818,318
607,375,3627,587,-881,404
711,569,3709,594,-940,450
784,731,3835,633,-974,432
894,1004,3904,681,-981,377
1014,1148,3984,697,-974,298
1124,1028,3959,677,-956,234
1157,876,3982,589,-952,227
1170,854,4070,508,-947,264
1134,791,3770,503,-951,300
1091,985,3698,398,-1002,344
1092,1188,3574,232,-1037,334
1135,1054,3500,192,-1147,263
1415,849,5260,129,-1144,218
1498,419,4776,427,-881,178
1385,911,3092,681,-884,240
1527,1783,3871,472,-1066,278
1663,1476,4486,336,-1092,170
1663,1476,4486,336,-1092,170
1774,964,4904,310,-1029,115
1719,144,3897,497,-946,137
1779,367,3407,665,-1100,315
1950,1387,3955,630,-1256,435
2148,2101,4570,566,-1300,360
2357,2317,4879,583,-1245,172
2243,1687,5027,501,-1117,18
2303,887,4983,332,-935,46
2358,497,4656,257,-779,197
2273,596,4356,260,-687,339
2176,1035,3923,387,-662,374
2230,1668,3772,524,-750,313
2422,2053,4320,482,-837,196
2489,1759,4810,342,-809,81
2454,1275,4813,229,-694,66
2438,1127,4664,187,-594,128
2469,1401,4647,179,-528,185
2508,1708,4673,182,-473,179
2481,1751,4617,179,-414,126
2418,1678,4515,116,-363,94
2432,1579,4362,29,-338,93
2434,1360,4348,-37,-343,94
2448,1309,4491,-55,-344,116
2491,1495,4666,-32,-306,131
2484,1577,4612,-12,-222,102
2450,1371,4398,-36,-142,59
2407,1121,4236,-64,-93,43
2381,995,4122,-59,-62,52
2389,1011,4102,-30,-49,66
2419,1032,4130,4,-29,67
2385,1021,4098,29,8,57
2315,978,3981,34,52,45
2240,969,3843,31,77,46
2185,1083,3797,41,79,49
2128,1167,3799,73,73,31
2131,1108,3792,79,70,14
2139,957,3776,73,70,19
2122,883,3768,94,72,45
2072,808,3752,181,68,79
2111,749,3643,340,53,111
2244,591,3887,473,30,141
2032,405,3612,947,7,141
2249,1064,3548,773,32,314
2237,1498,3583,584,46,335
2201,1623,3554,520,49,252
2246,1608,3558,418,57,147
2252,1419,3596,283,77,52
2244,1210,3566,192,95,-4
2207,1144,3499,119,97,-25
2163,1118,3516,27,85,-22
2202,1116,3581,-73,73,0
2266,1102,3715,-122,65,17
2294,1115,3809,-124,73,24
2335,1189,3796,-149,102,37
2409,1182,3766,-236,131,48
2328,1180,3788,-277,149,45
2204,1250,3722,-257,161,29
2161,1226,3694,-240,156,3
2185,1124,3677,-224,146,-11
2222,983,3684,-262,133,3
2238,973,3702,-283,117,40
2279,1050,3730,-283,106,62
2326,1038,3773,-334,104,74
2344,965,3870,-367,103,92
2370,1001,3930,-274,108,104
2373,1045,3880,-157,119,99
2372,1095,3831,-61,116,90
2522,1173,3772,53,91,73
3091,1145,4014,113,54,105
3091,1145,4014,113,54,105
2499,1353,4500,706,19,-23
1297,1504,3687,1075,133,-283
1488,1231,3480,640,261,-313
1850,1068,3626,474,266,-320
1978,1030,3570,446,259,-321
1966,926,3567,209,267,-240
1858,923,3607,77,259,-156
1855,968,3595,91,235,-115
1990,965,3611,128,201,-94
2022,957,3641,168,176,-58
1917,1001,3686,175,172,-10
1918,1040,3765,90,186,55
2026,1085,3951,42,219,103
1915,1133,3979,100,282,82
1918,961,4110,-2,373,76
2185,1064,4213,50,465,77
2250,1246,4268,196,546,47
2148,1343,4292,286,636,-12
2084,1425,4226,329,730,-67
2075,1412,4122,355,805,-112
2051,1257,4068,340,855,-128


181,567,4316,-205,-2,-350
210,545,4379,-151,14,-423
244,576,4429,-118,24,-473
256,616,4468,-86,38,-526
289,560,4425,-60,47,-577
376,561,4516,-64,42,-607
407,407,4666,-75,51,-635
349,133,4531,-65,83,-641
313,87,4387,-45,86,-614
324,158,4406,-43,72,-600
324,158,4406,-43,72,-600
314,155,4421,-54,68,-611
277,137,4382,-67,68,-631
267,238,4462,-87,62,-651
268,207,4433,-112,76,-698
230,-27,4367,-133,81,-738
238,-23,4347,-142,74,-738
257,-61,4339,-168,65,-739
263,-274,4357,-200,53,-728
235,-362,4337,-236,44,-685
207,-368,4318,-267,33,-649
202,-322,4445,-259,23,-643
241,-262,4421,-209,39,-671
294,-484,4314,-170,53,-712
295,-632,4306,-145,47,-703
337,-605,4374,-151,48,-660
275,-635,4472,-122,66,-637
304,-95,4390,-138,117,-625
170,-528,4156,-95,129,-710
213,-577,4276,-29,95,-693
142,-169,4025,-165,92,-642
-10,-253,3888,-364,33,-640
49,-315,4322,-451,-46,-649
132,-281,4666,-416,-38,-671
136,-420,4639,-371,29,-688
86,-476,4261,-378,83,-664
32,-652,4019,-431,58,-640
82,-815,4121,-407,-2,-610
201,-692,4185,-386,-37,-574
321,-700,4253,-399,-45,-571
402,-928,4271,-418,-32,-586
400,-1047,4217,-420,-11,-571
407,-1046,4130,-407,-5,-553
367,-1278,4109,-398,-13,-545
307,-1336,4233,-350,-21,-516
301,-1277,4205,-274,-3,-504
228,-1474,4070,-241,8,-496
189,-1590,3974,-214,0,-449
197,-1817,3917,-189,-18,-389
171,-1992,3875,-143,-40,-309
162,-1969,3819,-60,-58,-245
197,-2063,3729,44,-77,-228
263,-2095,3718,124,-99,-210
336,-1753,3893,196,-120,-192
395,-1619,3933,208,-115,-216
333,-1905,3806,181,-103,-216
258,-1888,3647,204,-142,-146
245,-1598,3765,232,-207,-76
237,-1414,3816,254,-245,-39
219,-1352,3686,266,-271,-20
206,-1496,3594,232,-313,10
194,-1478,3563,213,-363,71
269,-1412,3648,233,-406,115
339,-1455,3658,271,-419,134
356,-1391,3624,322,-418,152
358,-1198,3666,360,-419,164
356,-1174,3651,388,-421,161
337,-1197,3851,425,-433,174
321,-1061,3958,500,-412,194
287,-882,3805,589,-384,201
267,-505,3758,623,-394,199
276,-216,3866,606,-422,171
309,-252,3822,550,-444,153
306,-398,3669,454,-490,191
329,-534,3741,346,-569,275
403,-682,3927,305,-623,357
469,-654,3888,349,-635,413
509,-443,3772,406,-639,419
570,-502,3699,454,-653,364
611,-734,3648,488,-678,319
611,-734,3648,488,-678,319
684,-429,3503,489,-729,328
819,-367,4336,404,-782,297
936,-507,4717,568,-685,260
919,-129,4060,732,-574,267
853,-112,3830,686,-607,278
954,-101,4178,575,-673,334
994,-141,4154,543,-690,388
1080,-23,4128,527,-712,435
1124,135,4332,492,-715,441
1166,230,4325,534,-680,400
1173,276,4187,562,-662,354
1201,635,4211,492,-688,346
1230,591,4397,314,-688,323
1166,31,4162,234,-665,310
1154,-70,4291,272,-681,368
1292,-70,4788,344,-596,395
1170,-294,3644,599,-495,388
1160,304,3154,677,-651,431
1302,681,4094,461,-831,399
1479,364,4989,417,-792,309
1522,350,4397,510,-631,274
1474,363,4148,479,-600,265
1463,398,4333,498,-616,265
1454,467,4216,542,-608,265
1464,492,4145,527,-620,265
1525,576,4268,493,-643,269
1606,650,4324,456,-646,268
1668,572,4335,397,-635,271
1722,326,4335,361,-623,286
1797,468,4284,375,-606,314
1909,569,4326,388,-587,296
1963,366,4474,375,-547,274
1856,283,4145,390,-486,296
1760,363,3862,386,-486,320
1719,357,3818,389,-540,315
1756,414,3984,395,-578,296
1798,508,4075,427,-583,264
1822,619,4145,437,-565,226
1852,595,4104,452,-541,185
1941,588,4067,444,-529,173
2034,688,4240,416,-525,184
2071,728,4328,402,-485,191
2067,771,4188,384,-440,200
2016,875,4163,347,-427,207
2019,1040,4260,327,-425,193
2036,994,4283,305,-410,157
2019,935,4266,282,-391,142
2000,1015,4196,281,-378,136
2029,969,4125,262,-374,120
2080,692,4129,217,-377,125
2092,662,4110,169,-373,181
2070,896,3957,151,-380,210
2129,886,4106,148,-400,169
2208,786,4221,175,-382,118
2289,916,4246,209,-346,93
2343,1024,4248,196,-308,69
2330,970,4246,154,-273,53
2289,940,4200,123,-242,50
2261,839,4051,77,-225,52
2213,753,3983,23,-234,72
2182,762,3947,5,-248,89
2213,692,3968,2,-263,84
2299,744,4106,18,-270,75
2432,853,4250,40,-245,51
2483,751,4292,55,-190,15
2468,726,4278,69,-135,-1
2424,723,4195,83,-84,-14
2413,724,4138,75,-54,-10
2392,828,4162,54,-34,0
2392,828,4162,54,-34,0
2372,917,4139,42,-16,-6
2369,842,4119,21,-3,-24
2397,817,4116,-8,0,-23
2402,780,4119,-43,4,-11
2357,611,4045,-75,16,-1
2324,648,4027,-79,21,13
2362,824,4136,-59,33,-8
2372,694,4141,-46,71,-61
2316,547,4026,-58,111,-69
2232,548,3935,-68,126,-49
2199,539,3897,-50,127,-46
2228,478,3852,-29,127,-52
2231,497,3838,-31,129,-44
2223,516,3814,-43,130,-39
2200,492,3763,-59,130,-33
2175,464,3742,-76,123,-28
2168,456,3805,-69,121,-36
2154,433,3833,-33,134,-59
2174,403,3831,-3,155,-75
2135,391,3789,-9,181,-63
2021,471,3660,-13,195,-44
1955,468,3536,-31,180,-36
1949,419,3549,-58,145,-18
1933,443,3540,-83,119,2
1895,475,3517,-117,95,20
1861,438,3499,-134,67,24
1856,398,3464,-144,38,31
1889,391,3490,-159,8,39
1927,357,3548,-142,-10,33
1952,357,3570,-124,-23,31
1984,432,3704,-112,-29,30
2026,491,3855,-72,-15,12
2041,493,3905,-14,20,-17
2022,458,3862,29,59,-35
2014,446,3801,24,83,-25
1973,447,3802,11,92,0
1987,551,3765,21,86,17
2050,636,3770,-5,69,28
2090,583,3804,-53,50,28
2137,520,3840,-96,31,34
2198,431,3943,-121,13,43
2249,390,3986,-85,11,41
2295,394,3983,-69,20,40
2365,409,4064,-48,25,35
2440,462,4141,-23,39,32
2488,465,4256,-16,68,27
2491,409,4311,-23,116,22
2391,340,4294,-65,174,29
2264,486,4182,-104,210,55


187,-105,4191,-247,121,-462
252,-284,4395,-247,83,-492
356,-379,4554,-229,105,-474
259,-459,4245,-288,158,-445
129,-560,4097,-239,142,-436
134,-406,4056,-205,107,-426
147,-391,4124,-231,76,-443
147,-391,4124,-231,76,-443
185,-397,4203,-273,60,-454
157,-438,4183,-305,57,-459
122,-505,4119,-328,45,-450
151,-580,4184,-307,15,-444
165,-691,4176,-279,5,-437
170,-783,4151,-293,7,-407
213,-717,4245,-249,1,-389
223,-681,4416,-182,23,-400
188,-611,4327,-95,71,-417
126,-590,4044,-65,89,-429
93,-768,4018,-85,54,-430
180,-776,4192,-62,10,-405
292,-624,4317,-48,2,-378
339,-542,4378,-65,21,-369
345,-565,4327,-100,50,-369
241,-724,4234,-156,66,-365
171,-949,4074,-155,48,-335
208,-985,4085,-135,-2,-277
236,-785,4172,-118,-39,-236
193,-536,4159,-132,-46,-254
242,-312,4307,-121,-69,-335
292,-530,4501,-121,-73,-428
238,-698,4566,-139,-52,-421
231,-505,4545,-141,-36,-356
204,-422,4530,-144,-27,-318
167,-311,4419,-137,-15,-299
174,-368,4297,-177,-22,-301
199,-520,4428,-210,-38,-305
218,-411,4504,-171,-24,-302
215,-396,4392,-132,0,-321
227,-472,4315,-129,8,-345
205,-474,4355,-128,8,-358
211,-409,4389,-93,10,-384
185,-498,4431,-69,19,-417
186,-521,4380,-40,33,-421
204,-514,4328,-57,39,-411
217,-589,4333,-86,39,-394
273,-618,4327,-79,34,-372
291,-572,4279,-63,34,-363
311,-593,4302,-60,29,-375
318,-710,4399,-38,29,-396
314,-642,4468,4,44,-400
325,-429,4405,10,69,-403
312,-483,4326,-14,65,-421
304,-725,4469,-13,50,-414
262,-784,4429,33,65,-379
199,-819,4186,85,78,-360
148,-860,4081,108,55,-352
186,-752,4130,126,14,-352
259,-762,4156,127,-13,-366
331,-843,4400,115,-37,-360
392,-677,4682,159,-8,-340
391,-519,4620,198,76,-354
352,-647,4240,198,128,-395
341,-844,4226,193,102,-410
356,-891,4364,195,85,-383
378,-792,4401,217,95,-351
369,-662,4364,238,105,-334
330,-517,4340,256,98,-334
330,-491,4355,249,82,-339
267,-632,4337,216,71,-319
193,-710,4135,179,52,-269
189,-749,4001,129,0,-225
248,-854,4179,81,-52,-194
305,-870,4271,81,-63,-173
321,-912,4271,108,-52,-164
296,-981,4193,135,-37,-147
270,-973,4077,148,-34,-128
270,-973,4077,148,-34,-128
265,-917,4048,152,-50,-117
259,-935,3967,154,-70,-111
256,-1109,3855,145,-105,-95
244,-1255,3932,129,-155,-45
272,-1206,3948,159,-186,10
326,-1171,3857,204,-210,41
380,-1210,3876,242,-233,58
447,-1154,3928,286,-244,77
497,-1083,3935,334,-244,94
539,-1069,4007,378,-241,108
555,-987,4023,434,-229,130
545,-834,3971,460,-214,160
495,-860,3900,465,-212,175
445,-918,3835,481,-223,204
438,-786,3792,479,-241,254
397,-686,3782,471,-270,284
364,-546,3903,501,-292,284
383,-351,3954,557,-291,261
363,-307,3831,581,-282,242
298,-441,3671,555,-294,255
256,-427,3615,512,-342,309
310,-237,3707,492,-403,344
413,-148,3914,498,-459,335
448,-118,4406,530,-447,313
429,-143,4257,627,-363,297
363,-254,3800,687,-331,310
407,-120,3703,651,-395,372
566,52,3949,578,-467,415
671,170,4204,534,-486,416
767,365,4389,507,-465,394
823,331,4380,518,-422,350
801,175,4174,515,-391,343
794,118,4010,481,-395,380
786,22,3914,428,-419,423
795,-140,3937,356,-445,471
809,-194,4073,331,-461,519
819,1,4169,413,-456,523
813,80,4056,491,-431,484
802,3,3762,512,-450,456
843,222,4100,422,-531,477
920,-32,4477,375,-502,471
914,-262,4092,531,-454,492
935,227,4053,607,-463,556
923,740,4126,594,-464,533
913,737,4049,583,-469,438
939,379,4133,553,-508,394
1022,259,4250,524,-535,444
1155,408,4299,493,-539,518
1243,479,4282,475,-523,550
1184,426,4179,475,-504,543
1213,568,4163,517,-504,519
1317,587,4241,560,-499,476
1351,653,4216,580,-471,463
1327,913,4170,554,-454,466
1277,889,4133,536,-447,436
1202,699,3969,525,-447,425
1181,801,3794,464,-478,464
1183,664,3624,387,-549,499
1272,661,4325,229,-594,557
1279,533,4086,341,-530,548
1291,607,3566,453,-548,537
1351,797,3943,412,-634,524
1417,1040,4359,405,-624,481
1438,1155,4153,458,-561,405
1433,999,4014,487,-548,334
1486,980,4031,457,-561,333
1543,936,4017,385,-583,370
1592,793,4140,281,-607,430
1735,991,4235,236,-615,497
1819,1152,4207,222,-613,502
1819,1152,4207,222,-613,502
1887,1078,4292,204,-602,461
1916,884,4347,219,-570,423
1946,1045,4215,256,-536,412
1961,996,3987,221,-528,391
1932,917,3963,156,-562,394
2052,1248,4695,31,-542,392
1809,686,3166,212,-514,309
2036,827,4558,135,-709,372
2229,694,5136,193,-557,397
2136,690,3916,299,-366,417
2059,908,3769,302,-399,410
2123,1238,4406,335,-444,338
2186,1271,4406,415,-373,224
2185,1229,4191,409,-324,171
2158,1416,4370,359,-306,167
2102,1321,4236,312,-264,141
2003,999,4019,248,-253,151
1970,981,4007,179,-272,215
1989,1001,3941,135,-290,262
2049,1055,3915,80,-315,280
2101,1193,4271,91,-332,253
2175,1460,4319,167,-278,182
2163,1252,4133,177,-215,97
2185,1079,4077,160,-191,80
2222,1055,4096,127,-174,105
2205,1109,4058,112,-154,116
2213,1228,4038,104,-146,108
2225,1154,4076,84,-143,87
2232,1102,4051,54,-134,92
2288,1119,4064,31,-128,100
2309,1100,4105,15,-119,94
2317,1151,4126,4,-104,89
2299,1121,4115,-18,-81,80
2274,1195,4129,-22,-55,68
2280,1298,4115,-28,-30,36
2248,1073,4044,-48,-5,-7
2195,984,3929,-67,2,-13
2129,970,3882,-89,0,-11
2120,938,3876,-101,-10,-8
2172,934,3890,-109,-15,-10
2165,841,3960,-122,-6,-16
2167,897,3861,-107,9,-18
2225,768,3780,-116,13,-31
2228,618,3810,-134,13,-22
2217,734,3840,-151,26,4
2216,835,3838,-143,43,-10
2182,676,3825,-111,62,-53
2146,612,3730,-92,77,-56
2103,656,3674,-84,72,-44
2091,663,3649,-67,58,-45
2076,600,3655,-56,39,-52
2055,554,3635,-59,26,-53


100,-295,4269,-240,64,-518
101,-492,4226,-242,42,-510
101,-492,4226,-242,42,-510
172,-485,4296,-230,16,-491
257,-575,4367,-207,14,-494
273,-668,4373,-155,34,-497
289,-494,4369,-104,56,-491
288,-513,4345,-69,75,-526
236,-619,4277,-15,90,-565
233,-508,4243,-20,88,-563
263,-500,4384,-53,73,-559
224,-673,4470,-55,73,-548
185,-600,4420,-41,86,-497
162,-536,4223,-76,97,-479
130,-706,4152,-44,60,-488
217,-669,4225,-36,20,-474
206,-661,4247,-82,13,-462
152,-467,4225,-120,12,-452
205,-660,4275,-145,5,-486
360,-698,4421,-171,11,-479
341,-713,4434,-194,35,-468
240,-766,4391,-165,50,-445
183,-641,4405,-159,59,-420
171,-454,4239,-191,62,-417
191,-445,4205,-254,22,-436
225,-533,4472,-304,-13,-435
209,-546,4593,-322,0,-412
201,-600,4448,-311,30,-404
205,-627,4391,-302,37,-402
260,-494,4431,-289,32,-403
254,-618,4437,-293,33,-422
196,-803,4413,-294,45,-407
165,-761,4312,-254,46,-374
190,-780,4327,-244,30,-356
201,-845,4347,-245,23,-341
182,-852,4244,-239,22,-325
180,-954,4279,-215,1,-318
239,-796,4437,-168,2,-303
270,-670,4488,-152,32,-321
288,-718,4517,-140,58,-346
269,-877,4517,-129,77,-337
217,-708,4424,-121,86,-285
237,-654,4257,-163,79,-263
219,-830,4240,-195,51,-265
250,-887,4370,-222,34,-250
230,-1079,4469,-219,57,-243
196,-976,4246,-227,108,-219
147,-1062,4018,-214,106,-234
143,-1191,4095,-180,60,-233
150,-1182,4129,-130,42,-217
158,-1356,4017,-106,40,-204
108,-1395,3874,-100,21,-169
84,-1210,3869,-104,-17,-143
120,-1167,4077,-89,-49,-161
155,-1347,4136,-18,-47,-185
135,-1529,4044,50,-35,-170
123,-1364,3963,122,-42,-122
187,-1254,3982,135,-63,-100
229,-1396,4068,137,-81,-91
288,-1368,4184,166,-84,-55
340,-1235,4171,203,-64,-22
322,-1402,4139,247,-50,-16
262,-1432,3972,307,-43,13
260,-1335,3875,301,-61,62
269,-1273,3932,328,-94,80
275,-1316,3957,365,-111,84
264,-1337,3962,417,-114,95
266,-1284,3892,460,-114,114
257,-1249,3826,484,-128,133
282,-1140,3952,492,-156,159
273,-1107,4001,507,-155,176
273,-1107,4001,507,-155,176
223,-1096,3880,524,-149,203
217,-878,3867,552,-165,230
219,-685,3911,584,-185,218
167,-595,3830,588,-203,196
159,-597,3938,575,-247,190
201,-718,4122,584,-260,212
196,-609,3959,586,-252,268
157,-445,3808,570,-277,298
190,-490,3812,538,-322,299
260,-619,3789,532,-354,303
338,-519,3866,538,-380,323
441,-454,4046,552,-384,326
476,-586,4019,569,-354,325
449,-497,3951,578,-335,358
416,-284,3832,580,-332,368
387,-471,3819,593,-354,339
418,-354,3950,626,-375,349
446,-63,3924,637,-380,353
479,-105,4006,617,-402,337
468,-75,4047,583,-412,357
459,23,3936,552,-417,380
487,-75,3839,510,-443,387
550,-87,4011,478,-485,402
595,89,4153,488,-488,408
572,244,4162,520,-468,381
544,192,4044,539,-462,340
510,-106,3892,508,-482,345
554,-174,3777,464,-530,400
644,173,3697,433,-607,439
822,178,4554,350,-638,403
866,-111,4476,522,-528,348
893,330,4012,718,-475,349
974,663,4124,726,-518,332
958,509,4458,624,-519,317
845,337,4144,587,-474,338
803,239,3784,530,-499,382
853,194,3832,478,-580,430
997,566,4024,429,-631,448
1079,629,4302,363,-626,398
1112,608,4327,362,-580,342
1167,569,4753,362,-543,313
1171,105,4714,488,-394,289
1063,128,3386,749,-359,338
1094,741,3443,709,-561,417
1165,773,4337,495,-676,422
1228,728,4340,406,-629,425
1283,812,4342,356,-584,408
1304,610,4316,378,-541,357
1322,473,4095,481,-528,347
1435,607,4050,553,-563,365
1542,642,4243,538,-584,379
1621,847,4412,510,-558,379
1622,952,4442,482,-505,340
1578,901,4379,455,-456,304
1548,1007,4323,406,-431,300
1497,962,4439,365,-411,299
1401,809,3989,442,-406,303
1444,891,3997,425,-476,340
1478,868,4168,376,-511,354
1519,1136,4202,387,-514,348
1632,1356,4364,409,-504,284
1681,1249,4394,391,-461,217
1700,1379,4346,353,-422,204
1667,1296,4248,268,-394,197
1583,1001,4173,188,-386,220
1541,985,4003,150,-389,274
1554,1060,3934,96,-419,310
1597,1135,4114,53,-448,305
1629,1171,4183,45,-443,277
1680,1318,4120,18,-425,252
1680,1318,4120,18,-425,252
1698,1317,4111,-36,-420,214
1682,952,4144,-107,-423,195
1682,847,4105,-123,-420,222
1758,885,4069,-132,-425,239
1820,880,3972,-136,-436,228
1884,719,4031,-164,-461,219
1969,675,4178,-177,-469,231
2038,795,4228,-176,-447,245
2068,788,4255,-171,-416,233
2097,752,4285,-171,-387,219
2073,727,4311,-149,-351,204
2090,812,4203,-130,-313,187
2075,613,4113,-159,-291,163
1998,542,4110,-168,-282,169
1929,638,4070,-157,-267,170
1911,697,4023,-120,-259,134
1931,686,4103,-83,-263,96
1917,689,4105,-70,-252,84
1902,604,3994,-68,-246,89
1936,542,3972,-69,-265,103
2037,554,4076,-57,-276,114
2157,566,4173,-21,-262,104
2190,597,4215,-6,-231,94
2193,773,4244,7,-202,84
2185,821,4274,0,-176,60
2181,817,4265,-4,-156,38
2233,833,4302,-19,-143,25
2238,768,4309,-30,-126,16
2262,890,4247,-63,-110,24
2280,886,4322,-104,-107,13
2310,777,4414,-132,-95,4
2310,703,4462,-146,-61,12
2300,722,4399,-130,-20,15
2280,710,4319,-106,13,0
2236,604,4214,-82,41,-19
2198,585,4109,-74,56,-21
2224,543,4084,-80,56,-25
2273,469,4163,-73,60,-29
2314,512,4187,-57,86,-26
2319,557,4163,-51,116,-33
2328,467,4150,-49,137,-52
2332,374,4188,-51,155,-46
2318,438,4224,-48,184,-20
2274,541,4185,-28,216,-18
2258,539,4178,-5,236,-37
2211,442,4143,0,253,-52
2150,368,4035,-21,267,-44
2098,383,4037,-40,256,-21
2067,451,4057,-46,251,-11
2018,425,4027,-42,255,-26
1946,425,3922,-49,257,-36
1902,364,3814,-89,244,-32
1890,245,3833,-143,213,-17
1887,227,3909,-156,190,1
1900,291,3943,-153,189,13
1923,419,3911,-164,196,13
1909,357,4007,-213,204,3


258,567,4612,149,155,-640
238,473,4494,142,177,-664
220,346,4391,134,171,-679
201,163,4242,107,155,-669
190,141,4176,79,123,-639
252,248,4171,51,91,-629
289,179,4300,14,67,-658
330,198,4539,17,67,-687
332,273,4676,43,104,-728
240,290,4577,58,156,-768
148,191,4351,16,175,-782
148,191,4351,16,175,-782
54,0,4282,-26,143,-775
90,-21,4309,-22,90,-748
193,-86,4383,-38,54,-722
244,-95,4510,-40,38,-701
346,89,4528,-44,49,-693
344,-7,4519,-72,71,-731
340,-218,4555,-59,84,-759
373,-156,4421,-18,104,-756
379,-151,4464,-77,107,-742
311,-210,4594,-76,109,-743
247,-221,4370,-48,138,-741
181,-239,4201,-79,132,-730
171,-197,4234,-97,92,-723
215,-192,4249,-121,66,-736
250,-433,4332,-138,49,-752
232,-419,4405,-141,59,-724
190,-236,4384,-150,79,-707
140,-258,4387,-155,81,-721
104,-295,4367,-148,77,-728
77,-326,4332,-140,70,-728
93,-322,4324,-141,60,-724
188,-287,4343,-114,46,-743
270,-506,4448,-96,38,-768
252,-616,4594,-84,54,-735
326,-325,4593,-76,101,-675
273,-215,4319,-181,144,-684
204,-637,4324,-193,104,-704
260,-568,4458,-209,72,-643
231,-315,4451,-278,75,-602
170,-364,4365,-342,77,-622
71,-500,4284,-374,64,-641
153,-411,4361,-382,36,-641
227,-591,4536,-373,31,-661
168,-785,4544,-373,61,-633
59,-806,4361,-330,87,-582
26,-818,4103,-308,82,-558
44,-1013,4174,-311,42,-546
99,-1170,4413,-251,43,-517
80,-869,4137,-231,99,-497
35,-1060,3916,-180,82,-546
129,-1230,4110,-171,29,-533
196,-1208,4513,-159,28,-489
192,-927,4335,-143,108,-458
91,-964,3845,-193,122,-483
6,-1234,3764,-243,29,-495
54,-1239,4010,-249,-70,-454
202,-1289,4374,-227,-96,-407
226,-1256,4414,-176,-49,-364
214,-1060,4190,-145,-7,-328
132,-1217,4100,-136,-7,-336
85,-1388,4130,-92,-16,-320
99,-1330,4067,-39,-12,-284
65,-1246,3979,-17,-20,-264
72,-1063,4220,12,-44,-255
129,-1215,4331,53,-23,-271
130,-1285,4135,112,0,-245
136,-1287,3989,64,-11,-183
104,-1465,4049,53,-44,-145
94,-1407,4130,101,-57,-107
130,-1166,4155,198,-57,-106
131,-1198,4035,231,-55,-121
98,-1346,3952,190,-74,-87
145,-1243,4059,167,-111,-27
153,-1246,4133,178,-121,8
148,-1138,4046,189,-114,50
98,-1144,3877,210,-128,66
102,-1232,3814,250,-162,77
134,-1159,3856,284,-194,107
188,-1071,3908,320,-215,131
188,-1071,3908,320,-215,131
199,-1105,3889,332,-223,149
170,-1074,3827,340,-230,181
177,-882,3850,380,-247,201
236,-827,3921,424,-252,190
296,-942,3976,464,-248,191
287,-823,4029,519,-228,217
207,-684,4039,535,-194,236
66,-573,3941,575,-167,228
-2,-398,3873,623,-170,217
-14,-141,3824,627,-202,207
6,-75,3973,585,-253,195
70,-145,4047,521,-280,209
119,-235,4021,460,-299,254
202,-171,3969,412,-326,309
245,-218,3929,386,-350,325
248,-373,3922,382,-365,320
295,-397,3920,426,-377,305
356,-485,4008,463,-379,288
362,-508,4009,489,-364,299
360,-281,3864,515,-355,325
316,-158,3753,501,-371,329
282,-137,3767,483,-410,326
323,-101,3822,467,-451,335
410,-94,3933,440,-488,350
503,-180,4135,435,-511,364
550,-90,4198,450,-491,388
510,-35,3935,465,-458,384
387,-101,3415,474,-492,367
598,195,4206,375,-593,355
715,-332,4591,499,-527,300
727,-48,3816,656,-450,361
649,271,3798,655,-524,399
719,367,4201,639,-574,399
809,507,4244,658,-564,397
864,655,4196,625,-549,387
865,624,4217,573,-545,361
862,447,4090,524,-537,359
837,388,3963,444,-551,401
794,406,3881,399,-589,436
785,477,3886,357,-631,449
851,785,4013,283,-658,424
847,516,4190,265,-653,331
938,377,4347,319,-643,324
970,210,4880,360,-524,336
780,-49,3386,638,-401,366
770,456,2669,705,-619,452
974,1156,3963,485,-883,463
1216,1113,4648,401,-872,338
1373,834,4727,369,-740,254
1295,342,4324,390,-613,245
1284,279,4017,466,-601,315
1270,236,3809,595,-663,385
1331,574,3843,672,-772,444
1449,921,4290,640,-820,431
1640,1026,4478,654,-789,350
1807,959,4577,657,-738,287
1861,1101,4754,595,-671,297
1859,1250,4688,562,-583,301
1750,1116,4475,493,-515,300
1643,938,4217,414,-503,330
1618,865,4188,353,-530,377
1632,882,3940,352,-566,397
1709,1003,4020,335,-631,390
1775,984,4258,321,-642,349
1791,857,4225,318,-599,304
1802,933,4321,329,-565,294
1846,963,4322,340,-523,283
1822,922,4278,323,-484,286
1816,1080,4214,311,-459,303
1729,1170,4142,279,-446,297
1729,1170,4142,279,-446,297
1668,1189,3975,258,-454,280
1710,1097,3874,228,-495,264
1850,1049,4145,204,-545,256
1993,1131,4344,235,-535,236
2038,1222,4338,224,-490,218
2119,1313,4383,219,-461,195
2191,1281,4515,182,-425,183
2187,1319,4544,152,-369,190
2140,1241,4329,120,-308,189
2026,1137,4218,62,-287,205
1994,1238,4175,46,-286,219
2014,1232,4158,43,-289,193
2038,1290,4245,34,-289,166
2079,1310,4251,21,-276,136
2082,1164,4224,-19,-263,117
2123,1185,4324,-48,-254,121
2168,1115,4337,-49,-229,109
2199,1009,4304,-74,-200,110
2171,1021,4366,-60,-173,113
2127,994,4173,-50,-130,108
2094,976,4035,-53,-124,99
2147,1042,4155,-49,-137,79
2159,1016,4249,-40,-116,46
2135,933,4132,-26,-78,22
2088,832,4028,-38,-63,20
2064,868,4011,-45,-67,29
2105,921,4004,-45,-70,27
2155,790,4023,-56,-64,15
2170,683,4006,-62,-47,28
2152,759,3976,-64,-25,51
2113,790,3918,-46,-6,39
2091,768,3873,-33,5,15
2067,801,3869,-28,14,0
2041,808,3862,-33,23,-11
1993,749,3797,-37,30,-15
1940,754,3753,-45,26,-5
1933,799,3756,-40,15,0
1941,731,3698,-50,7,0
1966,705,3769,-56,-8,5
2034,861,3874,-51,-15,10
2039,848,3869,-68,1,-4
2019,746,3822,-91,11,-12
2002,777,3790,-120,12,-1
1987,807,3747,-154,9,1
1979,695,3656,-187,-1,-2
1994,565,3647,-236,-29,12
2064,620,3763,-258,-55,38


8,-81,4324,-82,43,-707
-8,15,4382,-84,13,-666
54,206,4546,-48,-1,-663
95,98,4603,-28,14,-683
118,164,4489,-34,23,-671
131,174,4472,-96,14,-666
139,63,4560,-133,8,-672
208,-8,4654,-113,18,-677
186,68,4598,-46,48,-687
180,149,4443,-103,74,-685
157,-81,4426,-168,77,-710
95,-326,4396,-150,78,-727
44,-413,4281,-132,83,-708
15,-428,4250,-111,69,-681
41,-406,4204,-89,54,-665
41,-525,4324,-75,38,-664
110,-259,4441,-80,55,-632
94,-233,4294,-70,80,-689
94,-233,4294,-70,80,-689
9,-769,4221,-35,62,-729
42,-647,4309,-35,33,-649
62,-235,4258,-45,22,-621
113,-292,4159,-155,11,-654
141,-683,4311,-228,-21,-674
166,-844,4457,-199,-35,-642
174,-644,4552,-186,-12,-583
212,-426,4790,-140,19,-572
228,-482,4859,-76,105,-588
199,-309,4414,-154,193,-589
90,-655,4303,-197,179,-627
68,-853,4325,-230,156,-594
-22,-855,4177,-272,148,-551
-80,-865,4172,-280,106,-522
-43,-672,4214,-258,57,-504
54,-619,4367,-313,26,-501
58,-721,4441,-323,20,-516
45,-836,4434,-325,33,-508
-8,-886,4396,-316,38,-478
19,-917,4255,-270,18,-455
41,-1150,4466,-214,-3,-439
108,-1009,4525,-178,20,-375
103,-750,4481,-146,59,-356
28,-696,4523,-117,87,-385
-17,-921,4438,-106,125,-411
-113,-1178,4211,-85,132,-382
-109,-1192,4066,-93,109,-306
-93,-1279,4194,-79,91,-262
-42,-970,4179,-68,117,-233
-34,-882,4051,-45,129,-292
-91,-1356,3928,4,115,-355
-185,-1599,3782,31,72,-298
-135,-1368,3896,-11,0,-161
-92,-988,4059,-13,-48,-101
-108,-944,4003,-61,-61,-117
-119,-1295,3997,-98,-93,-136
-116,-1345,4105,-85,-122,-86
-76,-1114,4182,-27,-136,-39
9,-1021,4231,-9,-127,-29
16,-1124,4195,-5,-106,-30
-23,-1244,4064,3,-98,-5
-16,-1293,3952,53,-111,27
46,-1221,3779,82,-131,64
53,-1377,3781,45,-171,85
57,-1430,3896,81,-206,114
88,-1340,3911,162,-213,139
86,-1394,3902,227,-210,147
58,-1318,3821,286,-204,182
54,-1185,3769,306,-217,226
81,-998,3783,340,-244,250
155,-947,3963,348,-253,256
142,-941,3940,410,-230,249
88,-891,3775,424,-206,263
61,-835,3589,427,-224,286
64,-747,3559,395,-276,320
24,-667,3478,356,-338,352
75,-553,3687,361,-419,369
149,-607,4003,419,-418,357
92,-639,3593,481,-368,367
8,-552,3222,448,-411,400
30,-391,3346,341,-526,442
190,-328,3852,281,-618,446
213,-255,4108,286,-621,428
119,-244,4075,208,-565,434
41,-307,3799,189,-542,453
53,-336,3650,185,-592,489
102,-308,3675,156,-666,539
179,-269,3780,142,-718,574
316,-103,3817,137,-740,575
316,-103,3817,137,-740,575
383,-172,4002,148,-776,514
452,-237,4312,226,-778,461
649,-173,4481,363,-718,407
705,-183,4482,421,-625,374
669,-36,4272,406,-561,379
661,72,4197,358,-552,370
673,0,4232,302,-560,348
660,-103,4138,235,-569,361
720,-183,3972,160,-597,402
752,-252,3885,65,-643,447
673,-212,3655,-17,-692,480
791,22,3556,-161,-822,492
1113,113,4947,-282,-817,374
1010,-471,4494,47,-648,196
1098,-528,4040,228,-647,244
1153,-165,4424,216,-680,349
1080,111,4408,206,-645,398
1083,145,4179,192,-613,400
963,-76,3666,177,-636,386
1009,-3,3632,62,-756,434
1167,353,4191,-17,-847,429
1272,451,4335,-37,-822,338
1622,619,5848,-10,-659,202
1406,-200,4511,403,-238,-2
1034,-512,2128,452,-278,95
1261,27,3697,49,-674,319
1442,59,4792,62,-724,346
1546,275,4900,194,-543,299
1120,-182,3475,470,-426,194
1035,-223,2577,509,-673,283
1302,99,3400,324,-1023,417
1541,562,4406,279,-1169,443
1762,782,4920,274,-1084,367
1828,515,5069,383,-900,226
1726,265,4669,528,-718,164
1686,258,4258,499,-626,228
1677,371,4237,493,-640,269
1766,506,4289,510,-662,264
1934,484,4500,509,-659,224
1942,359,4125,483,-629,205
1895,136,3989,379,-682,229
1921,196,4401,308,-747,297
2070,634,4746,289,-731,344
2093,882,4977,277,-643,296
1990,832,4877,312,-532,201
1901,642,4427,286,-452,150
1834,432,4207,197,-474,161
1899,465,4322,157,-552,206
2049,560,4554,145,-590,225
2149,649,4748,150,-570,210
2282,663,4782,185,-509,160
2318,490,4749,200,-432,108
2217,361,4693,200,-356,110
2132,433,4497,224,-290,134
2077,539,4306,225,-260,136
2077,546,4405,214,-269,112
2103,609,4611,232,-265,97
2027,724,4583,190,-220,105
1963,805,4373,116,-191,103
1890,585,4325,98,-215,69
1907,498,4250,76,-239,80
2000,483,4205,71,-252,86
2059,455,4213,76,-248,69
2148,379,4210,91,-222,37
2162,226,4124,97,-180,12
2097,58,4003,92,-137,18
2075,20,3881,129,-118,30
2067,53,3837,157,-116,42
2082,189,3907,186,-122,53
2082,189,3907,186,-122,53
2131,310,3954,201,-116,45
2163,313,4017,191,-110,31
2173,423,4149,166,-103,47
2182,586,4195,139,-78,65
2139,616,4175,109,-50,49
2111,641,4156,80,-37,37
2083,552,4172,47,-20,22
2003,533,4059,57,-2,15
1995,527,3960,19,0,20
1978,470,3964,22,-14,10
1950,434,3947,10,-16,13
1976,415,3895,21,-25,16
2008,402,3914,21,-37,21
2020,469,4030,19,-36,28
2023,601,4079,24,-18,22
2016,628,4000,9,2,-5
2051,474,3919,-26,1,-35
2061,307,3968,-73,-15,-29
2110,327,4027,-83,-26,2
2157,361,4008,-76,-18,13
2140,300,3999,-88,-6,11
2158,333,4014,-95,0,18
2185,349,4047,-94,9,6
2154,240,4068,-88,30,-11
2100,169,4070,-72,49,-15
2087,276,4072,-50,62,0
2096,370,4109,-47,65,1
2129,363,4181,-54,69,-6
2219,431,4296,-58,72,-7
2367,473,4425,-71,85,-15
2497,340,4543,-106,115,-30
2549,204,4677,-112,143,-11
2616,189,4748,-101,188,30
2598,245,4697,-89,248,65
2586,157,4747,-116,299,90
2516,86,4783,6,334,81
2421,56,4650,40,389,99
2306,64,4611,60,426,115
2329,179,4597,128,439,116
2325,168,4552,160,451,99
2294,148,4472,142,460,107


-11,119,4495,-159,84,-557
-51,152,4522,-176,67,-553
-50,52,4466,-170,58,-565
-28,-10,4421,-177,44,-558
30,62,4417,-195,29,-542
104,101,4472,-240,21,-542
150,-140,4603,-263,32,-561
104,-331,4571,-240,72,-554
2,-342,4447,-174,107,-531
38,-101,4345,-164,123,-528
45,-567,4484,-119,135,-568
75,-297,4114,-125,171,-520
-61,-389,3927,-195,123,-523
0,-455,4131,-205,53,-517
0,-442,4322,-210,38,-515
23,-157,4503,-156,61,-534
-50,-352,4320,-157,107,-572
-153,-498,4199,-172,105,-549
-190,-346,4155,-200,78,-494
-197,-355,4201,-226,43,-476
-107,-427,4255,-198,21,-475
-97,-465,4250,-191,18,-459
-171,-268,4197,-163,16,-451
-171,-268,4197,-163,16,-451
-217,-302,4162,-170,0,-474
-196,-435,4173,-179,-25,-486
-92,-305,4332,-155,-50,-487
8,-432,4531,-148,-41,-496
41,-484,4540,-130,-4,-474
-10,-421,4542,-93,30,-446
-89,-301,4163,-99,64,-428
-154,-476,3956,-157,23,-433
-117,-566,4091,-153,-41,-428
-21,-457,4164,-156,-72,-411
28,-429,4336,-165,-82,-423
0,-443,4417,-159,-55,-448
-72,-363,4394,-157,-26,-467
-91,-295,4499,-152,-20,-477
-134,-391,4429,-152,-3,-468
-184,-393,4289,-190,-4,-431
-192,-426,4412,-195,-31,-420
-158,-460,4449,-178,-24,-413
-164,-518,4387,-148,-10,-408
-115,-405,4176,-143,-13,-397
-42,-717,4130,-176,-45,-410
-4,-1038,4219,-171,-72,-386
11,-913,4282,-128,-66,-341
53,-853,4215,-88,-46,-350
78,-984,4313,-57,-46,-375
102,-669,4440,-14,-39,-364
114,-493,4527,7,-32,-381
70,-705,4539,-34,-21,-373
-44,-790,4369,-88,-15,-300
-75,-1003,4032,-144,-37,-239
-23,-1295,4085,-166,-99,-188
49,-1264,4167,-125,-121,-139
96,-1226,4181,-62,-117,-127
135,-1199,4295,39,-111,-141
230,-1111,4232,89,-84,-153
318,-1429,4328,111,-68,-161
370,-1480,4376,153,-25,-106
263,-1344,4234,202,15,-47
141,-1047,3921,248,23,-15
115,-1150,3779,192,-30,0
128,-1203,3969,162,-104,33
172,-1140,3977,166,-131,66
209,-1167,3952,191,-144,78
212,-1291,3953,238,-150,81
174,-1281,3949,283,-145,111
142,-1189,3836,323,-140,147
100,-1170,3776,351,-153,174
123,-1011,3838,397,-168,205
163,-980,3765,442,-163,211
156,-1097,3583,478,-163,225
116,-995,3502,500,-189,268
132,-855,3658,518,-221,294
106,-414,3699,552,-230,305
41,-244,3618,535,-252,275
8,-513,3599,489,-307,276
84,-266,3901,443,-370,352
87,-170,4018,420,-357,397
56,-151,3701,461,-343,405
89,-18,3740,477,-385,397
198,67,3933,486,-408,369
270,32,3973,498,-391,346
222,42,3796,462,-374,370
117,45,3637,400,-397,405
72,-107,3615,349,-454,428
84,-265,3581,328,-506,456
142,-251,3554,318,-559,482
244,-289,3835,342,-606,471
346,5,3943,422,-604,452
396,173,3749,454,-595,406
470,359,3926,411,-643,383
470,359,3926,411,-643,383
579,190,4346,379,-621,367
658,171,3793,432,-562,396
707,469,3728,373,-605,456
713,479,3969,251,-643,486
611,102,3859,166,-647,520
518,68,3697,150,-688,577
538,121,3717,114,-751,590
623,-233,3914,127,-800,560
793,-27,3985,220,-802,541
895,208,3872,283,-800,486
1074,372,4538,263,-815,417
1089,48,4616,299,-695,370
1027,194,4137,420,-641,400
1015,366,4208,393,-683,452
1084,614,4482,344,-697,489
1088,645,4328,345,-674,480
1072,649,4237,333,-689,455
1082,591,4300,323,-714,435
1133,548,4255,293,-741,440
1294,590,4455,268,-776,440
1452,784,4783,282,-760,412
1516,826,4740,314,-688,355
1491,492,4540,262,-636,341
1401,655,4552,205,-630,403
1351,1019,4543,177,-626,412
1332,851,4522,177,-627,348
1421,664,4430,168,-637,326
1500,483,4429,100,-656,357
1497,424,4333,37,-663,405
1442,269,4088,27,-688,416
1518,400,4279,35,-735,401
1641,497,4515,34,-708,335
1786,741,4589,97,-675,258
1829,6,4935,100,-506,164
1659,-147,3443,482,-486,223
1708,682,3989,432,-645,329
1719,571,4173,279,-670,331
1831,582,4172,252,-666,319
1858,639,4384,230,-645,300
1833,774,4387,262,-603,271
1856,789,4432,276,-569,233
1787,704,4355,258,-524,219
1791,671,4222,250,-495,207
1861,680,4406,274,-480,173
1917,803,4461,302,-434,133
1899,886,4334,293,-389,96
1811,907,4231,229,-383,85
1708,769,4154,177,-408,99
1685,624,3917,102,-451,152
1785,492,3876,17,-532,222
1956,424,4114,-28,-597,272
2140,539,4253,-31,-594,284
2201,561,4455,1,-558,241
2222,659,4582,89,-479,169
2216,642,4523,165,-389,87
2173,857,4531,221,-327,36
2204,959,4578,232,-282,3
2194,878,4456,214,-243,-5
2148,783,4341,144,-238,28
2190,804,4447,77,-259,83
2241,841,4456,36,-266,107
2291,760,4560,22,-260,103
2398,795,4728,46,-219,89
2409,923,4724,102,-139,46
2374,740,4502,146,-63,-9
2347,556,4374,143,-32,-12
2319,650,4331,126,-20,14
2303,651,4297,122,-4,18
2271,625,4230,113,16,12
2271,625,4230,113,16,12
2218,563,4210,114,31,-2
2181,565,4170,127,50,-13
2158,616,4117,129,65,-14
2149,676,4123,129,80,-22
2118,658,4079,152,103,-48
2099,689,3945,183,122,-82
2127,529,4010,198,123,-114
2084,496,3979,234,138,-108
2033,596,3815,246,143,-82
2006,637,3848,248,120,-75
1999,690,3840,259,105,-88
2040,643,3951,247,93,-104
2106,657,3954,236,104,-108
2141,651,3996,228,119,-112
2169,709,3969,216,141,-109
2126,661,3953,154,153,-102
2074,608,4095,165,158,-99
2130,711,4190,223,193,-120
2193,687,4212,256,243,-157
2247,713,4247,282,288,-181
2281,650,4363,304,321,-192
2290,598,4417,308,365,-159
2277,654,4273,307,408,-103
2284,813,4222,307,414,-70
2327,948,4402,377,410,-103
2321,876,4428,498,446,-185
2193,625,4347,618,493,-253
1898,466,4192,781,515,-261
1696,512,3966,981,493,-235
1701,530,3803,1143,431,-211
1751,578,3909,1260,336,-157
1951,725,4145,1279,260,-88
2110,881,4329,1175,256,-25
2062,1362,4515,1034,302,0
1856,1855,4630,841,401,-70


718,-257,4768,646,83,68
614,375,4581,592,148,96
545,321,4651,460,150,43
530,253,4774,358,143,31
624,615,4979,299,142,45
766,844,5135,217,177,-5
862,915,5321,143,247,-95
864,796,5300,140,334,-184
673,758,4871,119,399,-211
437,892,4402,7,372,-209
360,902,4465,-166,268,-234
338,641,4588,-295,200,-267
355,429,4500,-349,172,-275
478,402,4626,-348,151,-285
562,385,4778,-277,194,-337
536,295,4693,-167,283,-404
435,271,4402,-90,347,-449
339,291,4285,-79,350,-474
284,388,4331,-72,329,-499
331,437,4259,-69,307,-537
347,334,4267,-102,271,-563
344,400,4261,-138,234,-566
429,242,4269,-148,204,-601
512,-9,4226,-138,197,-618
527,95,4317,-125,193,-602
506,149,4376,-94,210,-621
476,33,4263,-51,234,-659
509,62,4384,-18,249,-695
486,65,4447,24,291,-752
390,161,4409,72,333,-809
265,141,4234,64,349,-856
205,125,4156,0,314,-877
203,71,4242,-38,260,-889
203,23,4224,-53,224,-897
229,-9,4164,-70,191,-912
250,-99,4111,-87,158,-935
293,-217,4220,-95,128,-953
374,-296,4326,-54,119,-965
466,-298,4323,-15,132,-972
512,-190,4382,-8,148,-987
504,-154,4357,-6,177,-1029
479,-365,4105,-35,193,-1066
467,-482,4100,-101,157,-1047
464,-439,4179,-159,120,-1008
423,-557,4144,-201,102,-998
373,-692,4038,-231,80,-992
441,-704,4130,-250,43,-986
560,-839,4335,-232,34,-988
570,-815,4344,-183,69,-977
538,-843,4142,-161,98,-984
503,-1101,4187,-162,93,-989
482,-1071,4209,-106,100,-965
492,-819,4116,-90,116,-958
414,-1285,4106,-117,101,-966
383,-1447,4110,-101,67,-877
478,-1015,4080,-107,54,-771
575,-906,4006,-231,35,-792
684,-1249,4356,-301,30,-833
587,-1277,4114,-294,78,-817
587,-1277,4114,-294,78,-817
463,-1521,3990,-313,57,-787
492,-1548,4137,-315,17,-719
526,-1297,4148,-304,16,-677
507,-1542,4086,-326,23,-676
431,-1814,4068,-335,20,-618
373,-1623,3996,-293,8,-542
444,-1551,4182,-251,-3,-529
484,-1695,4277,-186,22,-536
408,-1754,4089,-109,60,-522
395,-1762,4076,-57,57,-491
385,-1772,4157,-39,54,-442
341,-1749,4147,2,68,-396
264,-1552,3920,6,73,-369
211,-1645,4005,-24,38,-369
289,-1767,4002,0,8,-339
370,-1834,3990,-7,-19,-277
440,-1739,4260,-6,-37,-212
429,-1569,4067,20,0,-189
410,-1684,3983,-1,-7,-185
444,-1766,4096,1,-25,-150
471,-1619,4143,20,-18,-96
435,-1561,4156,42,-2,-60
356,-1501,4068,69,7,-34
295,-1369,4079,92,5,-15
189,-1334,3893,109,0,-5
189,-1392,3813,100,-46,17
265,-1340,3903,92,-93,63
280,-1344,3813,93,-112,99
264,-1478,3677,71,-135,131
286,-1533,3703,54,-171,167
337,-1562,3839,90,-180,189
326,-1604,3710,156,-157,211
225,-1589,3498,194,-160,258
125,-1464,3436,215,-196,298
152,-1316,3405,259,-239,294
218,-1277,3411,283,-290,270
325,-1255,3802,310,-325,263
339,-1067,3722,373,-293,280
297,-852,3539,385,-311,291
363,-979,3588,293,-364,316
427,-950,3845,248,-400,364
436,-884,3800,277,-387,385
426,-986,3701,310,-379,384
413,-1041,3636,331,-390,397
471,-855,3882,379,-408,410
481,-529,3898,453,-384,388
447,-557,3815,460,-375,334
429,-531,3908,432,-398,315
447,-519,3962,411,-418,313
379,-532,3818,356,-443,349
332,-344,3892,283,-504,389
417,-462,3827,245,-557,394
519,-485,3695,164,-620,432
555,-354,3651,38,-703,478
654,-372,4429,-35,-766,457
767,-669,4308,161,-667,415
840,-366,3796,329,-619,409
941,-201,4001,316,-653,370
989,-397,4145,307,-643,321
1007,-489,4233,355,-618,328
953,-224,4185,400,-588,355
851,-291,3915,391,-584,348
908,-376,3794,352,-642,366
989,-349,3955,294,-699,390
1092,-317,4070,281,-709,398
1140,-82,4190,307,-702,388
1223,-103,4653,315,-638,342
1161,-375,3699,461,-558,313
1329,-3,4188,484,-698,341
1329,-3,4188,484,-698,341
1322,-54,4399,381,-684,363
1270,-108,4173,386,-658,383
1219,-144,3950,387,-678,397
1168,-140,3843,365,-736,399
1280,-286,3935,374,-798,388
1460,-366,4014,410,-824,390
1568,-160,4150,467,-806,378
1624,-230,4088,516,-755,328
1736,-270,4161,567,-717,312
1854,119,4371,639,-661,314
1793,489,4392,660,-583,272
1686,303,4355,636,-515,217
1556,239,3902,634,-522,240
1427,204,3728,530,-629,309
1329,49,3592,395,-750,385
1424,-50,3659,354,-860,424
1705,233,4054,422,-901,386
1930,488,4466,536,-826,262
1997,546,4475,658,-688,131
2019,594,4378,678,-594,76
2028,549,4362,627,-554,89
1995,554,4298,539,-549,160
1904,607,4231,436,-573,242
1867,518,4096,367,-604,300
1835,533,3683,277,-673,339
1935,289,4020,187,-780,337
2075,302,4239,244,-778,319
2167,327,4107,354,-709,255
2248,281,4205,440,-650,186
2320,561,4430,511,-571,132
2327,665,4469,557,-483,62
2405,683,4633,554,-431,35
2403,924,4703,507,-381,60
2310,1117,4686,404,-352,80
2266,1110,4671,318,-353,72
2276,952,4605,232,-367,83
2329,1053,4678,96,-391,109
2406,1114,5097,37,-391,86
2396,892,4929,36,-316,49
2330,820,4646,-12,-275,75
2331,856,4590,-133,-279,108
2367,594,4532,-203,-272,101
2416,338,4454,-226,-254,109
2459,273,4564,-186,-223,123
2473,407,4560,-96,-154,107
2452,445,4552,-1,-80,54
2408,513,4456,57,-9,5
2335,467,4362,71,35,-26
2230,436,4207,81,54,-29
2161,441,4135,43,48,-16
2115,397,4164,18,35,-7
2090,554,4004,9,30,-8
2097,461,4029,-70,8,-29
2193,323,4169,-98,0,-39
2238,369,4136,-91,21,-33
2268,342,4180,-81,49,-35
2272,257,4091,-48,89,-35
2278,145,3940,-75,120,-8
2241,161,3943,-84,129,14
2172,131,3903,-53,144,11
2148,171,3869,-15,154,8
2203,206,3937,3,158,0
2206,143,3967,36,174,-13
2153,206,3825,76,194,-19
2096,255,3736,79,188,-36
2034,220,3760,83,174,-72
2041,180,3818,118,167,-108
2110,116,3877,171,172,-139
2164,159,3951,223,190,-148
2164,159,3951,223,190,-148


253,868,4290,-76,91,-655
207,717,4279,-50,103,-727
148,743,4270,-43,100,-756
99,769,4298,-44,83,-774
68,663,4267,-81,57,-773
117,756,4387,-129,16,-750
167,839,4448,-172,-2,-759
257,707,4460,-193,-2,-805
289,582,4444,-194,5,-842
317,546,4428,-176,14,-863
338,464,4420,-168,23,-880
370,394,4367,-168,27,-886
403,413,4493,-170,25,-886
387,338,4363,-139,50,-905
318,290,4137,-138,49,-921
337,257,4203,-172,4,-932
398,182,4366,-189,-26,-944
463,281,4429,-203,-28,-942
649,206,4698,-218,-15,-948
623,116,4671,-204,56,-942
340,29,4285,-216,113,-927
182,-130,4209,-245,88,-921
191,-263,4232,-242,49,-909
239,-188,4234,-228,21,-891
229,-264,4211,-249,1,-895
216,-505,4220,-253,-12,-908
313,-366,4257,-236,-18,-896
357,-699,4312,-231,-19,-911
433,-759,4312,-178,-17,-861
454,-426,4257,-174,-18,-804
475,-504,4490,-247,-21,-791
545,-519,4731,-244,31,-759
458,-35,4138,-298,91,-759
431,-455,4495,-337,35,-838
352,-664,4408,-293,64,-827
211,-659,4117,-283,57,-777
187,-707,4199,-305,6,-743
226,-725,4194,-294,-15,-735
270,-968,4304,-287,-24,-724
221,-879,4270,-268,-10,-670
178,-744,4217,-255,-10,-633
181,-710,4300,-280,-19,-613
143,-954,4181,-279,-17,-600
151,-1078,4079,-267,-37,-559
213,-945,4274,-221,-68,-529
313,-956,4323,-153,-45,-531
380,-1125,4262,-110,-18,-511
385,-1274,4192,-109,0,-436
332,-1143,4029,-145,0,-349
310,-1112,4162,-134,-23,-335
374,-1299,4094,-68,-18,-358
535,-1506,4297,-13,-22,-347
560,-1308,4371,30,12,-287
393,-1141,4167,41,48,-251
237,-1183,4126,28,38,-235
183,-1171,4115,30,19,-219
211,-1168,4148,50,-7,-196
211,-1168,4148,50,-7,-196
242,-948,4349,62,-30,-155
217,-797,4354,59,-24,-130
171,-854,4249,34,-33,-106
163,-901,4293,0,-59,-55
153,-959,4181,-20,-70,-3
123,-1129,4133,-38,-93,39
160,-1111,4107,-22,-101,73
185,-1191,3999,1,-113,80
182,-1153,4043,14,-126,101
215,-1104,4005,38,-138,114
290,-1143,4023,57,-157,131
324,-1166,4083,65,-159,161
295,-1107,3973,102,-147,195
306,-973,3888,108,-160,226
380,-907,4013,98,-175,251
379,-893,3990,119,-168,272
327,-939,3820,139,-168,299
302,-1045,3795,136,-193,336
297,-977,3737,179,-209,366
293,-1057,3615,199,-231,387
315,-1093,3504,205,-267,426
348,-972,3676,177,-305,470
337,-980,3717,245,-310,465
355,-974,3675,282,-308,474
331,-829,3741,313,-311,486
268,-672,3685,362,-314,479
271,-469,3530,377,-345,463
331,-485,3880,336,-401,449
363,-552,3783,356,-376,478
338,-405,3575,383,-410,513
364,-329,3813,340,-469,537
344,-198,3829,344,-483,535
358,-102,3839,368,-502,502
425,29,3973,357,-523,471
429,56,4024,336,-530,457
376,80,3917,349,-541,463
364,101,3776,336,-576,478
436,66,3847,299,-625,485
517,144,4016,294,-651,484
540,297,3900,312,-648,463
543,109,3717,275,-672,442
607,-15,3754,242,-723,455
712,-21,3662,262,-757,473
785,11,3519,258,-799,490
927,482,4299,193,-851,480
961,137,4349,291,-725,377
961,301,3740,438,-690,333
1028,134,4224,375,-765,338
1057,118,4194,384,-741,397
999,143,3731,429,-742,435
1097,235,3823,397,-816,445
1251,148,4053,374,-845,440
1369,382,4149,395,-847,450
1474,710,4331,362,-833,417
1529,553,4370,306,-784,354
1480,656,4264,273,-758,344
1547,225,4764,253,-679,330
1523,97,3744,456,-592,370
1465,542,3521,450,-730,429
1374,525,4100,212,-866,436
1531,-88,4644,168,-810,404
1628,211,3760,510,-795,415
1741,655,4216,464,-865,412
1849,554,4367,404,-851,360
1927,606,4555,426,-795,324
1991,780,4499,433,-726,296
2064,683,4729,400,-682,273
2050,729,4756,375,-617,302
1939,806,4444,337,-584,340
1939,806,4444,337,-584,340
1856,730,4342,258,-626,361
1853,600,4360,174,-665,389
1954,647,4464,155,-675,393
2063,771,4597,194,-643,346
2151,653,4546,228,-582,274
2219,574,4615,257,-532,243
2198,653,4546,252,-478,250
2151,547,4499,220,-445,257
2112,609,4416,224,-422,258
2132,754,4415,205,-419,243
2186,792,4581,182,-421,210
2207,758,4662,172,-397,192
2195,908,4708,167,-370,194
2200,869,4677,146,-342,190
2195,793,4624,112,-320,200
2200,876,4627,87,-297,208
2240,867,4670,76,-262,184
2232,852,4641,82,-214,154
2199,879,4544,88,-169,121
2112,743,4352,71,-145,85
2088,692,4283,53,-152,66
2193,626,4369,27,-155,61
2247,741,4506,2,-133,74
2161,838,4372,0,-78,56
2101,737,4238,-28,-58,34
2092,711,4277,-56,-62,38
2057,665,4175,-67,-59,38
2081,526,4129,-70,-66,35
2114,494,4131,-65,-57,41
2164,427,4089,-48,-38,30
2202,400,4088,-22,-13,16
2174,420,3996,-3,16,6
2141,340,3949,6,30,-4
2097,366,3910,11,39,1
2036,436,3819,7,41,0
2006,423,3805,-6,29,-12
2006,418,3846,-7,18,-32
1971,463,3831,-4,19,-47
1920,417,3772,-15,17,-58
1952,287,3784,-27,0,-58
2016,265,3845,-19,0,-45
2018,275,3852,-2,12,-41
1984,323,3820,11,23,-44
1996,321,3809,15,21,-51
2034,349,3854,4,13,-49
2044,402,3903,-7,15,-45
2013,416,3872,-15,20,-45
2019,394,3812,-35,15,-41
2050,342,3865,-68,3,-33
2059,345,3894,-82,3,-24
2049,323,3784,-107,6,-22
2064,240,3866,-136,-3,-20
2088,315,3832,-147,-2,-14
2074,187,3901,-155,-4,-21
2120,190,3871,-145,0,-18
2162,198,3892,-155,5,-17
2186,191,3960,-171,11,-13
2189,189,3929,-167,23,-15
2206,198,3926,-157,26,-21
2256,279,4071,-143,30,-34
2295,362,4084,-112,55,-63
2355,409,4139,-119,72,-83
2395,476,4269,-145,96,-101
2374,462,4372,-167,137,-122
2339,480,4311,-173,182,-129
2296,401,4247,-193,202,-131
2289,401,4219,-202,209,-122
2217,548,4077,-223,215,-127
2146,505,3947,-295,194,-160
2146,505,3947,-295,194,-160
2102,121,3935,-433,148,-159
2066,9,4009,-550,98,-76


143,163,4427,193,93,-523
82,165,4426,229,114,-546
32,121,4455,240,115,-553
-21,300,4481,271,110,-555
-101,416,4303,265,94,-577
-60,346,4309,219,42,-611
64,189,4339,192,2,-637
172,116,4426,154,-18,-636
172,116,4426,154,-18,-636
235,231,4554,106,-23,-623
250,342,4646,55,-1,-632
226,239,4696,35,31,-670
136,82,4526,40,72,-696
30,65,4423,29,73,-687
-25,227,4396,13,57,-688
-19,74,4439,-18,40,-718
-16,0,4400,-22,27,-731
-6,1,4454,-49,7,-726
6,60,4453,-50,0,-736
13,-10,4369,-66,-5,-755
108,-134,4443,-66,-19,-764
187,-112,4545,-54,-12,-758
195,-51,4523,-75,10,-758
133,-274,4393,-125,19,-758
115,-356,4449,-153,0,-731
160,-303,4477,-144,-4,-719
247,-363,4584,-87,0,-739
299,-222,4421,-60,27,-754
317,-436,4469,-133,27,-769
247,-594,4439,-153,42,-752
196,-569,4355,-161,51,-716
206,-590,4495,-119,51,-701
158,-444,4163,-101,64,-712
230,-785,4306,-123,18,-719
286,-768,4369,-122,8,-663
256,-539,4279,-157,9,-616
236,-622,4314,-210,0,-619
164,-676,4329,-228,5,-621
135,-649,4256,-224,13,-626
131,-827,4366,-210,18,-643
82,-734,4456,-166,47,-644
44,-852,4501,-108,83,-654
39,-741,4304,-27,131,-623
-47,-762,4040,-71,108,-608
32,-1021,4295,-46,59,-599
87,-876,4130,-33,67,-563
112,-876,4138,-89,44,-541
128,-805,4189,-123,16,-531
145,-832,4338,-156,0,-523
167,-866,4254,-161,10,-499
155,-924,4210,-210,1,-454
99,-891,4235,-240,-6,-414
48,-813,4173,-221,-2,-401
29,-826,4150,-199,-18,-415
35,-889,4309,-172,-36,-416
40,-951,4053,-174,-33,-388
110,-1144,4079,-214,-74,-341
135,-1227,4167,-220,-98,-300
143,-1223,4345,-166,-77,-288
144,-1201,4227,-46,-25,-318
153,-1372,4170,26,0,-328
77,-1427,4206,77,16,-289
-7,-1214,3977,143,41,-243
-26,-1297,3728,71,7,-230
60,-1529,4135,61,-62,-205
67,-1306,4082,127,-59,-160
100,-1306,4018,128,-83,-139
133,-1311,4215,119,-119,-106
117,-1143,4202,127,-113,-72
108,-1141,4131,113,-123,-66
129,-1238,4222,94,-141,-51
110,-1217,4185,95,-140,-21
118,-1200,4214,109,-143,1
145,-1121,4260,126,-142,24
186,-1180,4257,132,-130,47
209,-1223,4259,140,-118,87
120,-1102,4079,161,-105,123
87,-1144,3971,169,-123,130
87,-1144,3971,169,-123,130
135,-1280,4012,182,-152,149
146,-1121,4053,228,-156,183
125,-1030,3862,287,-155,185
183,-1170,3867,296,-182,190
181,-993,3996,309,-206,226
170,-754,4146,367,-195,230
178,-839,3992,417,-171,223
169,-787,3897,419,-185,258
120,-617,3852,398,-213,296
107,-636,3770,369,-244,314
119,-697,3704,344,-279,339
133,-655,3750,330,-313,365
153,-708,3658,354,-331,367
197,-688,3686,383,-354,374
218,-670,3636,413,-362,367
267,-758,3665,456,-375,360
263,-652,3668,506,-375,379
173,-350,3529,539,-378,385
159,-226,3591,562,-411,355
179,-138,3570,566,-440,334
215,-150,3644,542,-488,342
280,-119,3729,519,-530,380
296,-104,3679,482,-558,411
339,-233,3714,459,-594,426
425,-257,3732,477,-616,444
458,-81,3815,500,-628,440
472,-55,3895,548,-625,396
573,-93,3896,605,-621,368
684,98,4059,631,-629,374
706,376,4114,632,-616,378
677,296,3999,602,-615,369
690,286,3915,555,-648,395
708,375,3718,498,-707,422
900,279,4289,374,-802,441
1034,148,4434,406,-729,461
1024,465,3962,535,-694,456
1041,463,4324,490,-721,438
1051,521,4249,482,-684,429
1015,527,4188,479,-670,401
1035,421,4208,492,-662,367
1037,350,4049,496,-657,359
1034,305,3970,478,-681,375
1057,259,4016,443,-703,398
1157,348,4045,447,-701,414
1262,467,4535,442,-708,409
1334,434,4432,596,-569,384
1313,628,3640,769,-542,332
1367,682,3996,675,-667,328
1316,916,4208,532,-702,361
1402,436,4284,472,-652,356
1547,607,3965,640,-690,377
1639,996,4432,607,-706,387
1662,1010,4408,607,-658,347
1643,891,4327,572,-612,338
1447,866,4012,521,-599,361
1387,683,3870,469,-641,387
1466,551,3812,468,-681,408
1615,420,3700,520,-702,402
1727,586,3995,590,-704,372
1763,891,4100,681,-644,294
1892,955,4160,755,-587,206
1980,858,4252,751,-535,184
1953,933,4120,731,-490,221
1917,879,4032,676,-481,272
1870,1069,4001,629,-492,315
1946,1255,4182,617,-514,306
2141,1458,4450,614,-503,272
2196,1500,4548,588,-451,234
2196,1500,4548,588,-451,234
2161,1549,4517,555,-396,223
2062,1681,4459,500,-364,217
2062,1557,4555,450,-350,196
2132,1568,4538,443,-324,204
2153,1606,4468,379,-306,224
2194,1525,4581,309,-303,238
2255,1457,4612,282,-274,247
2249,1644,4547,273,-231,240
2177,1491,4343,215,-204,204
2170,1471,4470,165,-210,186
2156,1476,4465,155,-185,168
2122,1471,4418,133,-161,157
2041,1529,4331,92,-140,146
2009,1295,4307,37,-140,132
1978,1323,4341,14,-137,146
1900,1347,4221,9,-125,134
1938,1232,4252,2,-128,117
2018,1193,4259,-5,-116,120
2080,1372,4436,-14,-92,119
2082,1304,4303,33,-37,62
2140,1072,4204,53,-1,29
2240,1156,4324,29,25,49
2200,1251,4273,-1,74,60
2146,1217,4185,-31,104,49
2067,1071,4092,-67,121,44
2011,1089,4068,-79,127,49
2019,1111,4074,-85,129,38
2027,1065,4023,-75,142,18
1925,1058,3955,-88,153,3
1878,1017,3919,-83,154,-18
1864,953,3781,-85,148,-34
1887,793,3795,-107,128,-34
1902,745,3879,-102,124,-16
1890,798,3906,-97,140,10
1821,969,3800,-75,154,19
1699,980,3669,-91,138,10
1702,848,3732,-112,95,7
1725,898,3723,-97,69,13
1722,936,3716,-96,48,5
1815,845,3866,-106,34,-8
1885,860,3871,-88,52,-5
1817,925,3777,-104,74,-1
1798,899,3738,-120,69,-13
1848,751,3802,-126,59,-24
1884,773,3794,-107,66,-21
1903,816,3822,-114,74,-16
1932,798,3857,-126,85,-17
1981,704,3909,-129,102,-13
1972,806,3890,-142,125,3
1964,817,3896,-163,144,-2
1933,794,3908,-175,157,-6
1840,841,3717,-213,158,0


-53,653,4482,210,-165,-453
51,684,4438,244,-146,-471
81,819,4527,193,-124,-478
66,832,4542,157,-86,-516
29,839,4552,143,-50,-561
-19,708,4449,146,-27,-603
-17,674,4470,150,-31,-619
-34,644,4491,151,-30,-622
-18,636,4366,175,-29,-629
-30,512,4327,127,-51,-621
-35,572,4359,80,-69,-602
-53,646,4267,34,-74,-609
-16,567,4457,-11,-85,-632
17,538,4460,2,-59,-651
-16,484,4379,3,-43,-669
-16,484,4379,3,-43,-669
-9,416,4435,2,-38,-682
-3,489,4462,21,-17,-694
-63,535,4407,32,3,-731
-81,397,4329,15,3,-754
-101,283,4274,4,-15,-745
-61,241,4275,-9,-50,-720
27,297,4192,-30,-76,-708
153,217,4413,-139,-102,-699
231,111,4643,-140,-80,-705
217,244,4557,-103,-30,-707
160,190,4483,-100,-7,-726
128,-6,4511,-108,0,-727
102,-29,4542,-103,12,-698
66,302,4448,-93,34,-675
-29,-20,4331,-120,24,-719
34,-254,4389,-118,0,-696
7,-32,4304,-166,-15,-636
-29,176,4322,-220,-40,-632
-46,-151,4235,-272,-56,-673
-34,-336,4291,-287,-79,-670
9,-215,4349,-265,-87,-650
113,-408,4396,-255,-82,-651
182,-634,4483,-259,-62,-614
127,-497,4524,-233,-26,-558
127,-374,4327,-176,24,-548
106,-470,4236,-208,24,-576
84,-604,4336,-213,15,-580
55,-644,4241,-207,18,-556
15,-730,4161,-230,-2,-520
37,-748,4287,-261,-37,-481
58,-519,4423,-241,-40,-465
92,-747,4403,-226,-27,-489
135,-888,4454,-202,-14,-464
68,-702,4368,-193,3,-411
28,-765,4181,-194,0,-397
29,-1063,4314,-230,-36,-367
11,-959,4403,-204,-36,-301
-20,-852,4258,-174,-28,-278
4,-922,4426,-167,-47,-275
54,-776,4473,-123,-34,-262
119,-877,4395,-90,-18,-266
145,-1063,4460,-84,-7,-239
106,-1050,4216,-81,8,-191
112,-1201,4321,-109,-4,-148
126,-1181,4482,-82,8,-99
52,-924,4212,-64,51,-68
-55,-1159,4084,-102,30,-73
-78,-1422,4036,-93,0,-38
-91,-1331,3923,-60,-35,14
-97,-1282,4025,-33,-73,34
-97,-1243,4008,15,-83,40
-98,-1249,3990,60,-96,46
-40,-1342,3968,92,-113,73
29,-1265,4112,110,-128,135
29,-1054,4061,152,-116,182
76,-1109,4069,195,-110,186
137,-1032,4103,249,-100,195
149,-852,4114,286,-91,200
178,-943,4147,311,-90,206
207,-937,4098,320,-77,262
167,-698,4041,320,-78,315
104,-671,3957,316,-81,323
43,-728,3840,322,-89,324
6,-579,3788,319,-113,340
0,-476,3796,313,-143,340
0,-474,3825,306,-171,346
68,-387,3901,293,-184,371
68,-217,3913,287,-175,386
4,-128,3756,289,-163,388
-44,-209,3484,249,-181,398
-44,-209,3484,249,-181,398
-67,-143,3348,165,-243,443
-88,-107,3262,65,-316,478
-94,-223,3233,0,-393,490
-58,-381,3338,-34,-453,483
14,-383,3485,28,-489,465
145,-285,3641,135,-498,426
214,-360,3704,239,-490,390
192,-291,3650,293,-489,406
211,-248,3554,307,-513,439
271,-372,3557,278,-555,491
239,-192,3649,238,-596,572
230,406,3770,235,-623,586
338,468,3717,249,-653,482
462,-4,4448,216,-660,415
516,167,4240,365,-561,444
422,539,3777,407,-548,444
444,219,4030,356,-615,419
448,-27,3927,351,-629,466
396,237,3719,350,-666,523
492,328,3722,340,-731,504
692,327,4027,314,-779,463
757,467,4173,309,-769,434
775,537,4079,302,-748,403
859,472,4632,251,-740,388
841,156,4034,394,-627,398
811,487,3342,426,-723,455
830,266,4397,197,-872,492
920,426,4293,272,-811,527
1055,677,4066,350,-803,500
1120,662,4344,301,-827,453
1097,637,4462,295,-801,432
1127,683,4090,347,-763,419
1162,525,4122,314,-811,421
1210,566,4083,270,-847,462
1288,508,4202,225,-875,476
1387,435,4391,251,-860,463
1443,486,4450,321,-808,441
1478,662,4574,360,-757,415
1418,728,4557,397,-700,376
1395,681,4494,437,-673,345
1337,670,4324,453,-665,336
1363,642,4268,456,-682,327
1431,953,4236,442,-723,311
1504,812,4447,372,-759,284
1590,944,4500,329,-762,310
1637,1132,4574,260,-767,332
1716,1065,4630,189,-760,331
1843,1002,4856,152,-741,326
1990,1190,4980,169,-681,305
2033,1195,5065,173,-597,258
1940,1143,4839,170,-520,230
1912,1014,4753,133,-503,225
2042,946,4949,112,-501,240
2102,1149,5029,103,-462,260
2098,1109,4891,111,-424,232
2185,962,4939,84,-414,215
2215,1175,5143,56,-389,222
2168,1294,5019,47,-334,176
2187,958,4998,28,-304,120
2249,965,5000,20,-268,124
2188,934,4873,-4,-219,130
2089,728,4686,-20,-183,123
2040,703,4552,-19,-168,119
2056,605,4532,-31,-159,113
2087,578,4551,-40,-138,123
2010,753,4454,-42,-109,125
2002,659,4425,-38,-86,91
2039,668,4475,-21,-56,77
2030,883,4467,-11,-12,62
2030,883,4467,-11,-12,62
1973,630,4259,-26,19,29
1944,445,4213,-54,18,46
1940,578,4201,-54,18,68
1982,491,4178,-43,24,50
2014,450,4221,-43,32,54
1984,633,4266,-41,48,63
1924,641,4164,-26,68,45
1920,622,4164,-46,65,42
1928,724,4179,-69,62,48
1921,817,4113,-101,57,32
1945,652,4220,-138,49,0
2002,666,4311,-112,69,-18
2064,743,4344,-65,104,-50
2077,685,4249,-54,139,-83
2077,596,4210,-83,153,-84
2142,537,4339,-109,153,-60
2230,627,4459,-136,181,-25
2253,692,4513,-141,224,-21
2209,696,4424,-113,270,-46
2104,673,4291,-112,290,-80
2024,654,4253,-154,282,-100
1972,566,4198,-216,258,-108
1903,513,4169,-289,213,-91
1895,548,4327,-357,153,-68
1987,587,4588,-383,125,-66
1982,631,4626,-404,146,-75
1895,532,4613,-460,168,-81
1890,373,4564,-537,174,-60
1900,296,4668,-581,164,-18
1932,176,4860,-622,182,41
2018,144,4803,-639,233,123
2046,-35,4602,-746,279,221
1895,-53,4459,-955,298,342
1892,584,4820,-885,289,345
1775,449,5014,-569,366,116
1653,62,4646,-324,514,-74
1765,-45,4489,-139,583,-218
1866,-590,4463,-47,631,-328
1954,-661,4660,-44,667,-270
1963,-440,4900,-55,733,-183
1867,-383,4865,-6,832,-152
1780,-500,4837,86,897,-156
1712,-420,4916,205,946,-148


228,1103,4358,-190,-133,-148
365,833,4453,-206,-57,-237
278,835,4382,-185,-10,-256
185,836,4272,-167,14,-279
147,801,4237,-169,11,-298
103,973,4327,-163,0,-317
33,1138,4236,-147,-4,-368
-19,978,4135,-167,-41,-420
64,840,4210,-210,-101,-428
231,796,4385,-238,-137,-408
320,910,4485,-256,-133,-386
369,861,4509,-261,-110,-391
328,1072,4520,-268,-84,-396
301,1114,4466,-283,-61,-443
322,872,4442,-289,-47,-503
295,777,4379,-271,-24,-537
208,748,4233,-257,-11,-568
126,710,4169,-262,-22,-597
119,601,4161,-270,-47,-618
173,549,4231,-279,-72,-619
212,588,4305,-275,-80,-616
258,675,4419,-273,-77,-614
264,707,4480,-272,-58,-624
220,707,4375,-272,-38,-645
214,518,4392,-292,-44,-666
203,589,4488,-279,-37,-671
271,607,4436,-251,-19,-717
431,436,4692,-234,0,-770
445,484,4718,-205,58,-787
319,538,4606,-218,109,-803
161,291,4370,-240,122,-826
107,106,4353,-271,83,-812
106,213,4361,-261,48,-797
144,169,4357,-245,27,-822
169,-149,4237,-232,14,-846
238,-289,4260,-225,-8,-832
352,-252,4514,-200,-7,-833
407,-318,4463,-103,42,-868
391,-393,4382,-49,78,-885
361,-459,4353,-19,85,-876
286,-567,4305,-26,81,-835
246,-603,4318,-62,83,-768
205,-614,4269,-82,83,-733
157,-647,4216,-9,77,-738
133,-550,4188,30,60,-743
134,-428,4305,49,37,-763
111,-446,4258,29,29,-779
90,-620,4244,-51,10,-767
98,-554,4308,-86,-9,-741
181,-658,4393,-87,-21,-733
181,-658,4393,-87,-21,-733
277,-780,4519,-57,-13,-706
286,-803,4525,-30,12,-658
229,-821,4583,-8,29,-604
179,-693,4446,44,59,-556
148,-649,4356,45,62,-523
149,-442,4395,43,57,-499
79,-351,4384,42,60,-527
75,-739,4240,43,63,-564
91,-888,4189,21,37,-526
90,-725,4302,22,9,-472
81,-584,4310,59,2,-456
116,-699,4377,90,0,-446
128,-770,4159,83,0,-390
168,-677,4360,0,-32,-313
130,-389,4398,9,-17,-299
101,-271,4338,51,7,-355
149,-592,4285,56,12,-408
157,-781,4374,33,13,-378
53,-593,4193,43,16,-332
74,-604,4221,21,-16,-318
172,-596,4314,-8,-35,-294
186,-741,4270,-42,-32,-260
189,-959,4133,-89,-38,-210
203,-1207,4243,-106,-63,-153
183,-1091,4291,-56,-44,-93
120,-845,4113,2,-31,-90
131,-998,4247,36,-45,-117
140,-996,4230,61,-45,-90
116,-891,4188,55,-56,-44
111,-1028,4188,31,-74,-6
128,-1149,4221,41,-80,40
150,-979,4204,82,-79,84
173,-856,4231,116,-81,95
222,-1057,4233,128,-79,110
197,-960,4179,121,-79,173
193,-919,4160,112,-86,210
174,-1134,4153,130,-86,229
123,-1102,4045,200,-77,255
105,-877,4007,280,-80,258
134,-916,3977,344,-80,241
193,-916,4010,376,-83,268
126,-486,3961,383,-73,314
21,-389,3834,369,-79,307
19,-632,3838,360,-105,315
11,-430,3863,360,-130,371
16,-51,3923,351,-153,396
56,58,4006,320,-162,372
64,-319,3899,276,-164,367
67,-382,3907,238,-185,430
74,-128,3899,246,-197,461
139,-173,3947,283,-202,429
203,-214,3854,324,-196,418
177,13,3787,311,-213,440
134,55,3667,269,-236,447
173,63,3698,224,-282,466
184,195,3699,198,-315,471
98,130,3569,166,-344,454
110,12,3868,126,-413,446
130,-162,3911,179,-396,460
129,-116,3604,259,-416,486
309,-35,3898,281,-476,508
463,225,4037,274,-471,533
466,206,3989,313,-439,507
373,124,3711,375,-427,485
349,292,3800,398,-462,473
426,336,3890,430,-486,450
574,441,3979,437,-504,465
560,460,3920,375,-522,510
491,368,3783,320,-549,560
491,368,3783,320,-549,560
447,470,3530,295,-608,586
520,427,4092,274,-667,564
595,309,3749,443,-633,497
736,410,3938,530,-660,466
825,595,4030,560,-658,456
827,564,3969,570,-645,462
808,548,3762,557,-661,494
820,473,3709,514,-705,537
948,514,3779,494,-745,574
1134,784,4191,497,-758,579
1188,1104,4259,539,-701,537
1171,1109,4178,518,-650,492
1065,1063,4135,482,-634,469
944,1132,3898,469,-642,445
1061,848,3969,408,-691,441
1171,723,4173,337,-737,494
1253,337,4284,367,-686,526
1409,289,4077,566,-666,528
1576,948,4264,727,-682,515
1778,1367,4743,717,-657,455
1720,1232,4139,749,-558,395
1641,1588,4411,633,-590,400
1512,1465,4598,535,-556,381
1418,1360,4345,557,-504,378
1412,1289,4154,517,-525,395
1417,1139,4191,434,-586,427
1465,1069,4231,371,-634,468
1570,1036,4309,366,-660,488
1740,1163,4539,406,-653,473
1921,1500,4833,483,-584,407
1929,1710,4822,537,-477,318
1882,1674,4739,522,-394,253
1802,1623,4700,467,-341,246
1587,1674,4372,384,-314,275
1434,1431,4160,276,-361,302
1422,1322,4149,206,-438,336
1530,1401,4227,177,-500,340
1798,1288,4437,163,-532,316
2070,1316,4705,165,-506,314
2175,1363,4631,189,-423,292
2093,1228,4519,207,-342,258
1949,1119,4261,231,-288,236
1916,1046,4212,251,-272,230
1949,1242,4358,270,-259,229
1888,1453,4302,295,-223,202
1807,1447,4182,286,-212,162
1825,1416,4206,267,-223,145
1803,1411,4143,241,-230,136
1881,1396,4201,204,-244,140
1914,1497,4281,156,-235,155
1880,1509,4258,126,-211,149
1955,1576,4327,111,-192,140
2035,1599,4355,98,-157,121
2043,1482,4285,72,-119,108
2043,1422,4216,33,-95,111
2009,1480,4216,5,-72,107
1974,1319,4127,-8,-54,82
1961,1303,4082,-15,-52,80
1949,1403,4103,-36,-53,76
1955,1140,4048,-36,-44,50
1924,1142,4004,-45,-40,64
1918,1292,4002,-56,-40,63
1965,1058,4023,-69,-32,44
1982,1104,4072,-66,-17,49
1942,1303,4044,-42,8,24
1907,1070,3920,-35,24,-13
1898,954,3870,-65,8,7
1939,1019,3977,-91,-6,37
1939,1019,3977,-91,-6,37
1980,976,3991,-85,4,36
1969,985,3984,-64,29,19
1938,917,3917,-36,58,-1
1898,831,3863,-29,71,2
1844,943,3854,-31,73,27
1786,1087,3798,-31,73,30
1786,1063,3800,-28,64,5
1781,1036,3786,-28,55,-9
1788,1011,3785,-43,40,-5
1834,1037,3846,-71,28,3


16,779,4279,-281,-186,-372
29,775,4270,-339,-200,-353
59,795,4397,-360,-214,-361
224,914,4660,-318,-205,-411
469,900,5121,-236,-116,-496
403,993,4797,-122,36,-602
136,799,4555,-127,107,-694
-104,704,4431,-125,126,-729
-243,676,4106,-104,94,-737
-225,449,4031,-119,-2,-728
-77,333,4040,-155,-105,-682
123,197,4305,-228,-184,-624
284,155,4515,-222,-192,-584
399,400,4550,-179,-156,-566
543,576,4713,-149,-95,-619
523,410,4657,-139,-5,-714
362,114,4434,-193,54,-745
220,55,4431,-228,70,-738
111,-48,4279,-202,73,-744
73,-218,4133,-179,43,-740
81,-221,4228,-163,-4,-718
82,-240,4312,-91,-31,-733
155,-208,4347,37,-35,-776
229,-217,4471,139,-23,-812
306,50,4601,144,16,-837
321,-60,4797,210,59,-890
281,-197,4545,272,121,-882
200,-8,4273,147,147,-789
57,154,4107,-39,97,-757
61,-184,4234,-104,32,-788
103,-437,4115,-114,-5,-775
144,-504,4099,-132,-59,-737
234,-526,4286,-134,-91,-698
278,-495,4330,-121,-76,-670
205,-477,4244,-101,-50,-658
221,-597,4346,-80,-42,-658
328,-556,4529,13,-10,-652
290,-264,4422,89,44,-643
219,-240,4331,87,70,-661
145,-496,4243,45,83,-661
53,-604,4180,33,76,-631
-27,-585,4174,65,58,-605
-45,-454,4028,84,39,-587
25,-523,4287,89,0,-589
75,-553,4170,129,0,-587
83,-676,4159,137,-7,-568
209,-804,4401,156,-15,-529
238,-575,4469,215,26,-479
60,-185,4365,254,71,-469
-31,-160,4086,253,71,-500
44,-393,4299,152,14,-489
104,-486,4422,115,-3,-438
101,-445,4337,92,-1,-381
61,-395,4422,83,-6,-347
-16,-480,4045,94,0,-345
40,-876,4094,21,-42,-309
45,-890,3964,-23,-69,-226
-9,-1017,3978,-45,-112,-184
99,-1124,4153,10,-133,-163
179,-884,4252,124,-119,-169
273,-770,4158,192,-96,-214
371,-1041,4293,179,-94,-222
354,-1134,4243,121,-77,-144
339,-1067,4205,88,-77,-61
366,-1008,4316,99,-73,-21
366,-1008,4316,99,-73,-21
311,-941,4227,154,-45,-21
201,-1062,4065,192,-35,-23
126,-1157,3925,216,-52,13
117,-1014,3892,212,-93,73
201,-1106,4022,191,-125,115
257,-1119,4107,200,-118,157
229,-1039,3978,207,-88,197
127,-920,3864,219,-83,230
75,-764,3859,256,-105,237
107,-855,3746,303,-121,244
95,-679,3727,303,-153,291
2,-518,3649,325,-188,308
45,-645,3876,365,-224,306
119,-453,3913,456,-208,334
115,-71,3802,483,-205,343
32,-37,3954,458,-226,318
-40,-62,3783,497,-234,305
18,-54,3736,469,-280,336
143,-2,3872,401,-326,387
199,-56,3901,354,-330,422
189,-84,3850,322,-331,450
166,-145,3731,319,-344,464
148,180,3791,278,-374,475
165,195,3985,312,-393,430
175,307,3875,355,-397,404
190,362,3832,331,-427,395
180,326,4003,292,-472,398
193,415,3994,337,-493,405
331,381,3865,334,-532,429
512,430,4027,234,-600,506
596,487,4425,112,-588,578
547,353,4075,190,-521,572
464,457,3930,245,-525,542
444,570,4001,271,-543,482
496,466,3955,335,-545,405
687,383,4070,387,-562,379
829,553,4270,434,-552,384
840,610,4084,427,-514,393
822,537,4134,361,-519,424
752,653,4018,349,-532,458
716,780,3870,316,-582,472
836,641,4083,243,-654,478
1028,782,4227,260,-683,485
1161,937,4667,207,-669,481
1181,881,4437,269,-559,435
1130,740,4143,346,-532,395
1152,704,4211,314,-547,415
1157,948,4216,254,-532,453
1080,770,3981,225,-533,450
1084,554,3926,189,-581,482
1115,655,3925,145,-624,537
1160,758,4071,151,-662,545
1287,705,4190,185,-671,517
1399,724,4364,217,-656,499
1465,901,4353,262,-614,477
1482,814,4413,271,-574,446
1434,947,4270,288,-524,436
1282,869,3903,253,-507,417
1285,718,4035,198,-557,418
1361,715,3634,212,-559,433
1491,836,4120,172,-685,449
1603,865,4462,114,-661,475
1699,958,4321,104,-623,474
1776,794,4591,94,-604,451
1847,670,4484,150,-541,430
1842,769,4495,173,-500,433
1787,917,4470,195,-463,422
1760,903,4338,201,-447,408
1752,1050,4371,152,-455,425
1752,1050,4371,152,-455,425
1692,1083,4416,123,-449,413
1696,887,4226,150,-429,401
1713,829,4512,163,-456,418
1726,963,4184,202,-410,448
1728,832,3932,175,-439,436
1808,665,4121,149,-499,422
1943,878,4372,203,-497,402
2046,858,4323,263,-448,358
2160,1068,4632,311,-418,324
2154,1336,4712,389,-321,263
2042,1160,4435,419,-237,195
1980,1223,4410,413,-216,189
1865,1366,4275,394,-210,194
1752,1224,4149,352,-228,201
1723,1310,4106,326,-266,216
1816,1392,4184,312,-297,199
1914,1353,4295,299,-304,173
2006,1378,4407,293,-285,163
2080,1551,4500,304,-243,142
2116,1550,4518,297,-191,105
2083,1591,4446,272,-138,84
1991,1510,4320,214,-112,77
1897,1469,4192,154,-119,94
1930,1524,4198,103,-155,104
2052,1484,4310,54,-181,98
2170,1362,4408,20,-177,86
2213,1302,4448,11,-145,71
2214,1236,4375,24,-104,49
2237,1144,4374,16,-70,31
2252,1072,4460,32,-25,17
2186,1180,4259,62,30,3
2098,1153,4184,57,58,-17
2082,1008,4123,53,69,-32
2029,970,4056,37,76,-21
1961,1040,3947,22,73,-17
1958,984,3968,9,55,-32
1993,958,3999,4,47,-42
2040,998,4022,-10,50,-49
2084,923,4096,-38,62,-48
2056,944,4050,-43,90,-44
2030,927,3993,-43,106,-57
2059,840,4043,-34,116,-72
2048,818,3983,-16,135,-76
1998,871,3913,-21,145,-73
1945,791,3814,-41,141,-76
1933,715,3774,-70,118,-70
1956,610,3940,-72,104,-62
1941,697,3823,-55,125,-44
1877,730,3760,-59,122,-42
1916,679,3752,-67,111,-43
1972,663,3747,-117,102,-18
1942,787,3781,-213,99,24
1857,836,3744,-263,102,21
1840,667,3608,-289,93,0
1811,686,3670,-360,58,18
1739,770,3676,-414,38,26
1693,622,3705,-426,24,0
1698,543,3732,-392,15,-16
1705,692,3779,-362,10,-23
1749,643,3772,-344,15,-48
1800,524,3798,-359,10,-43
1819,629,3849,-393,6,-10
1796,665,3831,-429,5,-5
1812,544,3737,-466,-5,-10


113,1126,4099,-287,-267,-278
130,1025,4262,-283,-276,-293
155,1153,4229,-225,-251,-331
178,1089,4281,-159,-237,-423
153,1098,4317,-107,-213,-498
86,1044,4199,-73,-197,-554
59,890,4211,-96,-213,-567
90,797,4271,-115,-229,-545
95,875,4233,-122,-236,-513
123,902,4232,-138,-251,-507
184,861,4307,-153,-261,-505
226,917,4363,-154,-260,-500
330,1015,4557,-141,-248,-515
432,1068,4702,-111,-201,-570
427,1011,4717,-74,-132,-632
354,973,4591,-48,-77,-674
268,837,4509,-61,-57,-689
187,888,4429,-85,-59,-673
150,907,4301,-120,-83,-659
186,846,4338,-164,-123,-649
266,798,4387,-181,-145,-653
328,691,4466,-180,-143,-668
316,537,4470,-140,-119,-679
354,554,4459,-142,-94,-672
391,596,4557,-139,-71,-665
391,596,4557,-139,-71,-665
280,633,4475,-151,-38,-660
170,712,4409,-180,-21,-654
126,604,4192,-249,-33,-673
213,375,4403,-252,-81,-683
275,344,4352,-230,-72,-665
267,313,4144,-268,-78,-657
303,116,4278,-325,-116,-659
340,64,4356,-309,-123,-657
366,72,4473,-271,-109,-654
344,-88,4393,-263,-71,-636
304,-128,4406,-274,-57,-596
322,42,4538,-235,-44,-580
323,82,4500,-163,-4,-597
233,20,4247,-166,18,-597
181,-67,4280,-215,-1,-579
186,-59,4376,-200,-18,-563
181,135,4376,-165,-28,-559
255,-1,4506,-174,-32,-568
324,-217,4561,-188,-12,-536
294,-149,4467,-234,9,-478
280,-129,4519,-234,18,-462
223,-211,4412,-195,35,-466
195,-286,4405,-187,34,-448
169,-218,4384,-200,31,-407
65,-347,4251,-220,25,-380
-57,-350,4143,-229,0,-359
-71,-422,4189,-222,-47,-359
47,-650,4289,-212,-73,-339
158,-645,4414,-198,-77,-283
188,-387,4532,-147,-51,-254
172,-429,4399,-70,-13,-284
123,-745,4334,-50,0,-273
89,-766,4259,-54,0,-200
69,-536,4200,-59,-16,-144
152,-510,4364,-68,-39,-135
220,-689,4428,-37,-22,-139
129,-746,4175,-4,2,-116
21,-792,4094,-9,-15,-85
30,-920,4048,17,-43,-58
85,-930,4128,61,-76,-13
74,-651,4142,88,-83,34
37,-670,3966,104,-88,39
28,-883,3938,99,-117,63
57,-823,3970,118,-141,115
95,-653,3974,177,-151,133
148,-697,3954,246,-149,125
180,-705,3931,291,-145,152
171,-533,3919,292,-142,210
120,-516,3874,281,-148,243
100,-572,3833,298,-159,264
121,-453,3851,320,-170,299
113,-331,3816,330,-175,321
99,-392,3757,336,-188,333
43,-414,3698,329,-204,354
-25,-388,3584,351,-224,366
-28,-318,3461,383,-261,358
48,-317,3571,399,-321,356
139,-258,3765,405,-358,389
203,-200,3731,402,-373,439
262,-169,3768,381,-398,489
327,-94,3841,405,-408,517
403,-124,3789,456,-392,519
539,107,3846,501,-386,532
599,348,3820,454,-372,538
530,345,3902,403,-376,512
405,343,4228,474,-356,471
335,315,3552,580,-305,444
352,208,3739,594,-402,451
420,564,3748,592,-448,498
420,564,3748,592,-448,498
501,590,3655,554,-493,515
649,451,3866,439,-554,570
766,634,4257,427,-570,613
769,959,4138,497,-515,601
794,949,4116,492,-499,550
874,919,4357,506,-490,522
812,1041,4020,506,-456,533
747,1125,4053,408,-518,549
782,866,4402,422,-500,547
725,928,3662,551,-470,540
816,960,3753,512,-578,543
1065,931,4081,479,-645,552
1258,1157,4204,464,-626,577
1283,1403,4136,411,-587,568
1284,1357,4039,441,-561,504
1289,1209,3958,431,-542,479
1308,1286,4066,360,-539,497
1239,1130,4044,292,-523,504
1170,1193,4111,294,-516,490
1141,1323,4056,342,-500,433
1081,1075,3908,383,-499,371
1170,1128,4443,415,-512,360
1242,1188,3973,573,-404,372
1284,1476,3472,642,-467,384
1398,1487,3985,489,-604,432
1496,1587,4096,325,-619,498
1571,1767,4113,198,-620,529
1647,1397,4573,102,-582,512
1648,1154,3838,267,-498,505
1642,1390,4015,295,-584,518
1641,1312,4248,271,-571,494
1683,1193,4109,309,-520,457
1720,1231,4209,364,-494,408
1648,1374,4144,420,-444,346
1593,1337,4142,472,-409,288
1590,1460,4010,550,-393,261
1642,1396,4010,503,-405,285
1708,1463,4068,435,-415,345
1743,1598,4100,381,-411,382
1767,1476,4031,338,-393,377
1730,1462,4034,313,-406,379
1699,1573,4074,256,-408,378
1773,1746,4287,261,-399,334
1829,1589,4258,314,-362,265
1818,1481,4122,277,-335,275
1880,1633,4338,209,-334,315
1837,1703,4134,230,-299,309
1746,1636,3937,173,-311,319
1767,1677,4042,93,-357,337
1842,1592,4137,81,-375,332
1962,1700,4225,83,-371,327
2050,1850,4309,74,-345,296
2160,1896,4467,77,-301,239
2236,1927,4531,107,-235,175
2203,1777,4415,119,-164,128
2071,1654,4266,119,-121,114
1994,1616,4158,126,-113,116
2002,1610,4158,107,-123,129
2056,1654,4204,87,-125,152
2054,1809,4173,67,-111,165
2000,1879,4115,21,-97,148
1980,1878,4107,-42,-93,119
1971,1717,4230,-46,-82,87
1955,1703,4092,12,-52,55
1939,1608,4046,17,-37,21
1943,1522,3998,13,-20,6
1976,1485,3962,0,-10,1
1989,1369,3941,-12,-4,10
1989,1369,3941,-12,-4,10
2007,1393,3858,-32,-4,30
2029,1415,3940,-59,-10,37
2049,1470,3892,-60,0,22
2046,1438,3912,-83,0,1
2012,1371,3872,-102,6,-7
1987,1316,3889,-118,10,-9
1955,1265,3789,-128,17,-11
1956,1231,3843,-145,17,-9
1936,1195,3813,-127,29,-11
1915,1162,3741,-118,32,-13
1958,1101,3796,-119,25,-14
1996,1127,3825,-116,35,-16
1996,1164,3798,-129,46,-15
1993,1110,3790,-146,45,-16
2026,1079,3863,-159,44,-11
2082,1119,3976,-145,61,-8
2091,1079,3904,-144,93,-5
2028,1067,3864,-179,108,10
2001,1133,3868,-205,109,18
2029,1175,3816,-223,104,17
2070,1097,3971,-279,87,28
2089,1135,3973,-294,99,41
2091,1154,4067,-304,113,36
2088,1118,4040,-279,135,10
2136,905,4043,-292,146,5
2189,933,4137,-318,156,41
2239,1215,4198,-359,183,64
2217,1270,4210,-401,212,39
2204,1235,4101,-455,225,15
2285,1209,4098,-560,200,18
2400,1190,4353,-678,170,34
2404,1180,4401,-747,183,45
2294,986,4257,-830,197,50
2211,970,4325,-918,183,73
2100,1003,4358,-961,182,62


4,1336,4084,-204,-169,-220
42,1194,4095,-199,-187,-264
95,1354,4170,-207,-195,-273
128,1502,4265,-230,-192,-300
141,1482,4183,-250,-175,-347
181,1309,4151,-261,-174,-400
249,1109,4226,-226,-169,-439
220,1102,4088,-135,-148,-470
135,1110,3879,-69,-157,-512
129,1042,3999,-62,-192,-551
172,932,4118,-22,-204,-577
242,693,4076,2,-198,-571
255,649,4120,-41,-203,-507
265,1153,4260,-87,-196,-454
265,1382,4308,-89,-164,-517
258,1212,4375,-63,-128,-619
269,1009,4427,-34,-86,-674
271,945,4321,-34,-46,-676
232,961,4225,-63,-46,-667
189,936,4383,-97,-56,-657
132,892,4222,-91,-41,-649
60,834,4039,-89,-65,-632
56,847,4123,-138,-112,-606
121,751,4417,-147,-137,-596
178,912,4321,-46,-114,-619
154,791,4247,-36,-99,-652
149,884,4307,-79,-101,-651
154,891,4333,-90,-94,-668
192,752,4267,-100,-94,-686
215,773,4441,-82,-106,-685
196,768,4437,-7,-89,-714
187,556,4545,93,-73,-760
197,679,4395,192,-37,-772
153,504,4183,217,-51,-805
281,430,4515,219,-103,-772
434,669,4622,187,-93,-717
470,658,4584,130,-68,-705
408,558,4506,49,-53,-690
415,577,4550,-21,-51,-675
405,497,4654,-58,-34,-685
343,240,4723,-20,6,-699
277,172,4173,-39,48,-675
242,-66,4430,-117,-18,-645
304,27,4739,-22,-11,-612
287,152,4287,22,42,-616
344,-103,4282,-86,0,-610
342,-242,4493,-195,-42,-556
274,-218,4527,-217,-41,-504
285,-307,4343,-187,-47,-486
364,-422,4676,-203,-74,-451
350,-306,4753,-150,-23,-412
266,-228,4599,-58,32,-423
269,-327,4744,50,62,-462
294,-77,4782,195,115,-486
214,15,4546,246,164,-499
112,-287,4433,226,153,-475
74,-499,4430,163,133,-378
108,-316,4460,147,125,-284
103,-149,4341,130,132,-279
86,-350,4598,183,127,-335
86,-350,4598,183,127,-335
53,-485,4377,320,168,-360
-16,-383,4220,348,164,-319
-90,-139,4215,336,136,-275
-84,-153,4079,280,105,-243
-64,-309,4227,197,61,-195
-130,-255,4075,187,55,-140
-194,-332,3983,180,24,-111
-165,-244,4217,212,-15,-83
-126,247,4284,261,-24,-77
-46,248,4518,346,-18,-122
-57,180,4313,441,9,-138
-99,276,4141,399,6,-96
-104,189,4196,356,-8,-75
-68,-83,4218,371,-4,-63
-18,-22,4178,392,14,-17
-78,81,4049,358,28,21
-120,114,4097,367,18,32
-70,177,4083,421,11,36
-52,310,4019,453,0,36
-63,152,3933,478,-25,20
10,17,3979,482,-58,39
154,104,4181,465,-68,92
292,136,4231,489,-33,129
269,406,4048,470,11,164
109,429,3929,406,30,167
1,272,3879,387,25,170
-68,237,3669,357,10,212
-118,236,3583,267,-40,275
-162,455,3473,160,-113,336
-101,461,3683,99,-184,341
30,151,3702,138,-196,328
118,-33,3658,129,-209,377
231,195,3883,86,-224,449
309,262,3931,121,-190,454
334,245,3937,150,-157,467
240,317,4009,206,-131,487
156,387,3814,292,-102,492
138,488,3721,337,-109,486
92,452,3664,381,-135,466
100,419,3715,494,-167,452
137,546,3644,581,-188,475
131,721,3604,526,-216,535
114,772,3661,454,-258,582
248,880,3937,446,-291,609
350,899,4123,524,-272,615
390,1239,3977,581,-225,633
411,1398,3935,566,-209,628
349,1552,3863,501,-199,622
256,1337,3817,453,-213,602
197,1079,3793,446,-246,626
153,1180,3710,422,-284,694
166,1457,3703,415,-342,729
245,1528,3672,389,-399,713
389,1221,3879,395,-453,690
516,1423,3986,437,-466,703
546,1666,3954,421,-481,712
653,1534,4372,387,-426,701
588,1516,3648,501,-360,688
604,1602,3617,452,-448,695
807,1580,4063,369,-506,706
942,1731,4121,366,-480,727
994,1876,4013,361,-466,734
989,1851,3818,254,-480,746
980,1827,4288,173,-543,762
1059,1792,4480,212,-484,756
1079,2080,4087,279,-434,737
1134,2149,4702,238,-375,667
1075,1725,3923,440,-255,564
1075,1725,3923,440,-255,564
1002,1720,3621,493,-324,563
984,2211,3850,366,-428,599
1047,1914,4096,300,-453,575
1207,2077,4416,286,-408,581
1061,2079,3320,334,-369,559
1098,1980,4412,248,-479,553
1062,1660,3644,283,-352,563
994,1696,3670,320,-406,584
962,1804,3606,348,-425,573
1049,1726,3691,390,-451,535
1140,2038,3762,441,-458,508
1163,2174,3762,445,-460,459
1292,2045,3862,420,-466,441
1435,2138,4019,356,-455,473
1497,2484,4128,303,-414,486
1388,2418,3981,268,-363,437
1314,2253,3756,238,-355,399
1248,2255,3693,199,-388,389
1243,2147,3579,136,-421,388
1244,1968,3640,88,-467,394
1270,2141,3681,97,-492,396
1417,2210,3717,119,-510,357
1573,2166,4029,85,-515,339
1617,2492,3966,76,-475,338
1778,2351,4143,42,-466,314
1903,2372,4334,29,-408,297
1841,2288,4171,41,-329,259
1751,2265,4050,88,-294,211
1672,2207,3946,57,-290,191
1734,2325,4123,21,-306,184
1777,2459,4120,16,-301,162
1758,2429,4212,-10,-296,144
1677,2375,4088,-15,-282,118
1651,2334,4048,-15,-292,96
1737,2199,4077,-43,-301,77
1837,2193,4171,-74,-296,88
1866,2273,4083,-108,-272,97
1931,2112,4111,-135,-258,83
1969,2053,4163,-136,-232,74
1960,1978,4099,-93,-195,40
1995,1878,4020,-40,-167,-3
2003,1783,4002,-31,-141,-28
1937,1602,3951,-34,-113,-38
1853,1510,3843,-21,-91,-35
1789,1628,3758,-9,-78,-28
1693,1573,3624,-3,-80,-36
1694,1566,3635,0,-102,-27
1771,1719,3722,-4,-113,-12
1790,1769,3719,-21,-102,-7
1765,1688,3652,-63,-95,0
1759,1682,3695,-124,-101,29
1778,1757,3699,-156,-103,50
1832,1729,3702,-180,-102,49
1897,1661,3727,-209,-96,54
1895,1772,3660,-256,-83,66
1847,1669,3624,-346,-86,62
1882,1521,3874,-313,-93,61
1913,1586,3713,-260,-55,74
1931,1724,3714,-288,-46,85
1903,1722,3711,-302,-38,67
1886,1810,3707,-314,-27,53
1903,1905,3708,-335,-18,34
1932,1846,3817,-374,-20,17
1902,1788,3848,-372,0,7
1796,1724,3564,-379,26,4
1780,1524,3362,-446,-1,20
1831,1395,3533,-586,-54,72
1821,1403,3618,-638,-61,106
1766,1281,3577,-651,-34,104
1746,1279,3577,-626,-15,97


223,772,4522,-289,-77,-491
139,887,4531,-311,-69,-474
45,790,4344,-308,-57,-489
-59,779,4273,-341,-88,-486
-79,613,4301,-339,-121,-490
10,476,4351,-313,-149,-463
141,561,4464,-326,-155,-423
225,590,4557,-378,-133,-410
149,511,4636,-347,-80,-435
-11,551,4255,-234,-39,-497
-20,441,4416,-226,-59,-546
-41,565,4343,-197,-57,-570
0,514,4417,-221,-74,-585
58,332,4431,-232,-77,-585
182,121,4631,-250,-71,-548
214,370,4493,-276,13,-478
-40,318,3817,-409,21,-477
-96,-9,3994,-498,-100,-487
37,20,4133,-586,-164,-430
186,19,4440,-657,-200,-390
235,46,4615,-611,-173,-384
209,-23,4352,-574,-121,-389
176,-164,4402,-608,-118,-369
121,-160,4415,-608,-114,-330
65,-195,4421,-592,-110,-301
28,-196,4378,-567,-109,-281
83,-300,4442,-542,-115,-276
97,-105,4519,-520,-110,-264
101,-5,4620,-501,-100,-282
211,-54,4610,-468,-80,-310
302,-304,4821,-497,-48,-300
260,-178,4792,-424,23,-283
52,-457,4572,-325,95,-297
-66,-253,4263,-263,130,-293
-129,-288,4285,-278,93,-316
-164,-428,4358,-262,57,-309
-166,-447,4245,-267,20,-262
-116,-377,4383,-289,-23,-219
-86,-299,4276,-296,-40,-205
-29,-361,4337,-311,-74,-216
48,-492,4339,-298,-81,-224
78,-634,4309,-278,-86,-211
46,-597,4307,-241,-88,-185
48,-449,4339,-182,-89,-188
70,-619,4318,-118,-74,-218
115,-692,4353,-56,-64,-221
180,-568,4456,-10,-35,-203
130,-585,4273,3,3,-187
59,-589,4202,5,1,-166
53,-686,4160,5,-9,-138
99,-741,4171,11,-24,-98
83,-772,4108,-3,-29,-57
39,-782,4093,-5,-42,-35
61,-877,4028,20,-53,-29
61,-877,4028,20,-53,-29
116,-944,4029,27,-72,0
139,-919,3996,28,-78,46
166,-958,3986,32,-94,86
176,-1008,4036,43,-99,129
138,-885,3962,67,-97,167
130,-845,3946,101,-108,168
171,-876,3921,149,-115,152
216,-989,3884,186,-122,151
192,-978,3831,203,-128,188
107,-893,3650,206,-141,223
103,-1015,3653,202,-177,254
107,-977,3681,202,-207,316
89,-778,3672,197,-231,378
88,-619,3744,204,-252,403
114,-576,3756,273,-259,389
89,-493,3696,315,-256,378
31,-285,3596,337,-271,367
-14,-478,3461,326,-309,356
37,-592,3488,309,-370,405
102,-400,3490,260,-425,482
128,-194,3471,204,-474,514
125,-375,3470,140,-525,506
176,-534,3782,182,-590,497
305,-267,3992,301,-558,505
393,158,3786,462,-526,457
491,106,3910,470,-539,405
511,225,4010,429,-531,417
437,452,3943,377,-532,433
466,486,4176,377,-565,417
514,463,4231,394,-560,421
558,330,4063,357,-560,465
619,397,4143,268,-592,540
639,411,4098,229,-604,577
684,352,4017,236,-619,576
717,368,3920,251,-638,558
755,319,3781,263,-667,519
894,383,3834,272,-724,481
1111,293,4475,204,-714,457
1159,333,4382,372,-630,427
1117,533,4161,444,-587,431
1032,731,4236,362,-587,455
956,692,4000,311,-587,456
967,495,4005,276,-637,474
931,450,3699,245,-685,525
1029,258,3683,150,-772,583
1202,441,3932,108,-839,613
1286,536,3928,114,-854,580
1340,419,3944,69,-864,542
1424,508,4285,84,-844,529
1432,867,4316,121,-776,504
1407,535,4219,122,-674,470
1240,504,3754,282,-665,474
1145,659,3490,283,-789,529
1266,694,3911,65,-925,627
1400,542,3784,-65,-991,685
1664,278,3996,-137,-1076,708
2033,652,4480,-145,-1104,697
2312,461,4811,-71,-958,565
2381,349,4848,196,-854,436
2342,519,4955,314,-690,412
2307,807,4613,316,-598,409
2258,932,5193,271,-573,406
2062,1045,4761,286,-467,409
1900,1142,4486,222,-462,414
1804,1129,4586,116,-518,412
1805,1114,4600,64,-546,412
1838,1169,4706,26,-559,402
1845,1062,4681,29,-546,357
1982,940,4779,26,-527,324
1982,940,4779,26,-527,324
2172,968,4904,23,-474,309
2234,988,4883,19,-391,296
2179,900,4619,10,-317,285
2191,777,4566,-19,-289,282
2055,877,4471,-39,-262,280
1947,869,4269,-49,-259,247
2055,714,4357,-57,-291,215
2125,788,4465,-65,-291,203
2080,715,4352,-81,-273,188
2088,705,4331,-87,-276,176
2238,666,4483,-88,-266,152
2308,675,4624,-75,-213,125
2250,663,4494,-45,-135,101
2192,672,4405,-37,-93,84
2154,586,4352,-46,-72,72
2110,655,4294,-55,-58,77
2074,640,4179,-59,-55,67
2045,497,4129,-63,-64,53
2053,585,4145,-56,-77,43
2108,641,4151,-57,-77,16
2130,487,4131,-70,-63,-4
2149,404,4129,-86,-49,1
2146,531,4190,-99,-27,18
2024,563,4022,-109,9,8
1884,344,3851,-112,15,-19
1869,224,3738,-99,-9,-21
1964,297,3859,-117,-44,-10
2022,316,3910,-124,-50,-14
2052,172,3850,-122,-52,-24
2140,191,3958,-137,-57,-16
2207,216,4069,-120,-37,-30
2225,59,3973,-107,0,-46
2181,90,3988,-119,23,-34
2122,279,4011,-111,46,-38
2097,264,3921,-106,60,-59
2049,180,3977,-177,49,-47
2027,186,4042,-205,39,-22
2105,245,4041,-227,31,-4
2180,249,4183,-261,26,-3
2216,24,4186,-263,45,-9
2226,36,4068,-271,64,7
2259,-136,4243,-286,70,13
2270,-42,4194,-236,110,21
2309,-174,4190,-235,140,12
2315,-299,4396,-171,180,0
2265,-138,4254,-88,248,-1
2169,-47,4177,-67,279,-12
2055,-106,4124,-71,289,-28
1993,-145,4107,-55,282,-41
1996,-160,4239,-28,280,-48
1954,-73,4141,12,297,-47
1904,-69,4119,-8,296,-37
1838,-80,4110,-8,291,-31
1798,-7,4150,0,282,-30
1828,110,4184,30,280,-50
1964,80,4232,45,281,-87
2095,33,4377,47,291,-106
2110,23,4347,36,331,-104
2090,-6,4222,22,366,-104
2049,-8,4150,-11,370,-84
1998,46,4121,-68,363,-61
1927,-54,4092,-126,355,-45
1852,-45,4018,-172,353,-16
1780,54,3891,-209,338,-4
1789,103,3948,-258,294,-18
1785,126,4072,-315,266,-35
1733,92,4026,-369,264,-56
1716,14,4014,-405,244,-80
1716,14,4014,-405,244,-80
1703,-25,4060,-424,213,-96
1707,-39,4146,-469,186,-100
1724,4,4193,-525,174,-100
1737,-79,4256,-557,163,-117
1778,-215,4342,-581,164,-117
1839,-215,4617,-536,169,-110


168,1665,4240,-294,-99,-285
147,1255,4216,-307,-108,-424
175,1153,4089,-307,-99,-425
205,1082,4059,-335,-117,-421
265,1043,4182,-330,-136,-430
334,995,4194,-285,-126,-451
354,877,4284,-245,-103,-484
320,954,4327,-167,-57,-530
265,941,4154,-114,-11,-595
228,597,4108,-128,-5,-632
174,568,4105,-163,-17,-603
90,778,4083,-174,-35,-591
36,513,3925,-169,-63,-620
74,329,3972,-197,-123,-599
116,415,4156,-182,-167,-566
203,348,4208,-149,-187,-557
313,14,4239,-91,-203,-521
433,229,4415,-146,-209,-407
433,229,4415,-146,-209,-407
477,650,4604,-142,-182,-388
458,564,4490,-89,-122,-474
442,449,4525,-72,-80,-564
395,340,4526,-23,-42,-646
459,275,4657,26,-10,-699
554,219,4978,155,38,-749
436,322,4853,316,137,-781
360,535,4493,305,220,-775
219,240,4253,226,205,-794
213,253,4237,177,122,-742
249,286,4337,77,41,-677
339,280,4477,0,3,-622
404,177,4427,-124,3,-581
389,154,4551,-232,0,-554
375,127,4784,-254,18,-560
326,-45,4683,-213,88,-576
191,-107,4537,-159,125,-576
137,-247,4568,-60,123,-577
112,-268,4283,-36,118,-539
157,-333,4455,-82,72,-492
211,-224,4633,-37,72,-479
176,-2,4400,32,96,-504
179,-6,4182,28,77,-546
235,-210,4260,-30,18,-563
248,-347,4281,-58,-16,-541
241,-326,4258,-91,-31,-501
317,-398,4400,-118,-55,-478
374,-440,4474,-116,-43,-441
317,-466,4333,-161,-13,-377
264,-413,4293,-156,-6,-336
232,-396,4347,-141,7,-335
205,-352,4259,-108,39,-363
150,-519,4209,-61,60,-391
104,-669,3951,-42,52,-380
88,-666,4054,-87,7,-317
34,-463,4046,-66,-18,-282
32,-517,4005,-42,-55,-294
109,-671,4183,-33,-96,-289
204,-720,4223,-26,-106,-240
295,-720,4267,-65,-114,-160
426,-857,4320,-107,-104,-76
468,-656,4391,-141,-78,16
345,-620,4211,-156,-37,46
244,-818,4078,-128,-29,44
226,-882,3905,-104,-48,66
237,-927,3904,-104,-95,99
269,-974,3956,-74,-130,122
276,-925,3890,-13,-142,133
298,-890,3967,45,-155,127
302,-878,3993,116,-152,123
272,-777,3944,164,-141,138
274,-926,3841,179,-146,167
287,-929,3883,175,-168,243
233,-678,3789,174,-175,324
198,-463,3702,183,-201,359
194,-413,3644,167,-237,371
206,-439,3656,120,-276,387
177,-481,3669,101,-300,386
83,-562,3504,128,-324,375
62,-351,3747,188,-389,376
102,-318,4086,258,-376,361
216,-508,3932,429,-327,347
212,-345,3814,513,-308,378
142,94,3875,533,-305,386
117,316,3848,561,-297,324
96,180,3693,501,-303,291
24,134,3734,446,-354,325
-2,234,3756,417,-417,382
82,343,3726,371,-480,439
82,343,3726,371,-480,439
213,301,3731,280,-539,483
384,365,4062,269,-583,498
463,533,4098,338,-556,459
503,525,3877,369,-522,376
595,430,4097,355,-554,313
716,346,4765,399,-490,302
599,467,3949,520,-360,338
466,597,3640,452,-438,392
471,493,3789,298,-545,465
603,561,3925,227,-623,542
826,808,4235,277,-678,555
972,899,4461,329,-647,507
1066,819,4419,397,-575,442
1045,827,4251,430,-521,407
1078,1068,4426,404,-524,379
1131,875,4542,392,-431,347
1118,1126,4291,545,-391,327
1100,1315,4247,530,-408,320
1110,1108,4322,429,-439,340
1024,929,4204,314,-454,408
925,836,3977,251,-497,470
958,838,3940,215,-556,498
1101,878,4110,235,-604,473
1249,987,4240,307,-604,418
1383,1049,4285,327,-564,365
1499,1119,4336,329,-514,320
1566,872,4431,323,-465,301
1560,723,4252,330,-423,336
1415,992,4052,266,-420,406
1351,1192,4146,185,-454,412
1408,983,4077,128,-452,382
1614,931,4707,119,-450,363
1611,827,4410,230,-312,370
1564,950,3919,393,-312,377
1525,1077,4089,383,-400,388
1541,1040,4283,275,-413,411
1622,1159,4369,258,-393,408
1691,1212,4586,256,-358,387
1608,1229,4365,262,-290,375
1526,1144,4140,209,-285,392
1497,1060,4138,166,-318,416
1554,969,4101,176,-352,427
1581,1191,4246,201,-372,420
1589,1237,4207,216,-364,370
1668,1063,4332,215,-367,332
1714,1174,4433,210,-354,340
1726,1262,4450,199,-327,327
1804,1141,4530,215,-291,297
1749,1287,4449,257,-238,272
1717,1192,4243,283,-202,229
1658,1098,4209,267,-206,217
1624,1215,4178,243,-220,234
1665,1292,4223,189,-253,258
1761,1404,4371,125,-287,283
1873,1584,4551,89,-291,285
1898,1448,4480,68,-260,255
1950,1343,4471,44,-242,247
2018,1429,4553,26,-215,250
2009,1446,4541,19,-163,231
1979,1378,4488,22,-112,199
1939,1373,4468,15,-69,176
1859,1385,4347,-2,-36,160
1825,1313,4322,0,-29,153
1797,1439,4201,-9,-24,154
1791,1473,4205,-40,-35,125
1820,1255,4181,-54,-34,83
1869,1172,4200,-64,-29,79
1885,1112,4167,-80,-15,83
1911,1069,4131,-96,0,93
1911,1069,4131,-96,0,93
1896,997,4101,-126,13,106
1870,1058,4102,-144,30,123
1832,1111,4093,-128,52,101
1824,916,4015,-90,74,60
1810,941,3927,-83,86,60
1671,1006,3786,-116,85,55
1659,815,3823,-142,52,31
1679,704,3934,-127,29,32
1659,926,3937,-102,35,30
1667,885,4008,-53,46,-13
1620,810,3883,-31,63,-28
1583,909,3875,-35,51,-17
1633,916,3964,-46,33,-14
1732,913,4038,-61,30,-6
1748,921,4117,-94,47,2
1741,868,3990,-97,70,4
1760,743,3940,-129,73,15
1724,868,3947,-174,74,25
1687,713,3900,-206,77,13
1683,521,3869,-198,63,6
1637,641,3916,-182,58,18
1571,571,3745,-182,60,8
1608,553,3680,-235,31,20
1707,603,4066,-296,4,31
1668,507,3926,-255,38,26
1689,597,3899,-286,49,53
1599,591,4040,-245,51,35
1580,569,3950,-205,67,19
1665,473,4001,-206,54,27
1746,567,4154,-232,48,58
1774,539,4236,-221,62,63
1722,595,4171,-194,87,63
1681,558,4177,-173,96,41
1676,546,4169,-161,99,24
1725,585,4283,-162,96,17
1735,577,4309,-145,102,15
1752,650,4302,-189,109,32
1781,515,4446,-213,115,28
1812,578,4483,-177,144,29
1820,663,4450,-196,175,23
1842,511,4559,-255,195,17


40,595,4278,120,79,-629
109,509,4309,9,53,-659
164,355,4550,9,33,-691
221,381,4502,38,54,-694
218,433,4479,12,55,-697
240,293,4575,-64,52,-685
242,307,4631,-89,66,-667
147,512,4485,-108,87,-671
103,238,4397,-141,75,-714
107,-38,4358,-161,48,-712
118,-46,4373,-156,25,-680
105,-83,4347,-150,13,-663
126,-147,4368,-153,2,-648
121,-155,4400,-133,5,-646
150,-102,4446,-80,10,-656
162,-36,4661,29,34,-681
184,277,4081,-30,87,-697
240,-296,4580,-157,28,-729
203,-288,4513,-128,61,-677
123,-265,4360,-148,87,-629
56,-231,4081,-164,81,-614
0,-397,3984,-277,19,-599
2,-590,4170,-308,-55,-579
27,-646,4250,-281,-77,-537
91,-583,4177,-251,-72,-505
140,-633,4232,-234,-78,-504
142,-683,4319,-187,-73,-503
123,-583,4418,-126,-53,-493
132,-516,4356,-70,-28,-498
202,-587,4393,-61,-23,-499
240,-511,4572,-65,-20,-483
209,-504,4522,-39,8,-484
170,-653,4467,-23,27,-472
170,-653,4467,-23,27,-472
125,-544,4416,-23,40,-427
78,-445,4246,-45,31,-420
115,-558,4362,-61,-7,-431
198,-670,4469,-38,-17,-430
216,-581,4396,-17,-2,-402
179,-316,4367,-48,-6,-380
144,-416,4361,-110,-20,-383
130,-559,4377,-159,-35,-363
108,-535,4444,-180,-45,-321
118,-340,4476,-168,-38,-306
139,-527,4463,-157,-25,-330
121,-770,4427,-153,-12,-314
101,-721,4356,-132,-10,-273
105,-816,4295,-117,-7,-252
64,-946,4121,-112,-9,-228
63,-1110,4079,-103,-36,-198
94,-1099,4120,-80,-57,-154
151,-998,4169,-44,-63,-132
201,-927,4253,-21,-56,-126
183,-1008,4173,1,-40,-124
139,-1062,4155,12,-41,-103
122,-947,4150,42,-48,-84
148,-1013,4144,81,-58,-85
182,-1062,4201,96,-66,-56
203,-958,4196,100,-71,-11
172,-971,4168,98,-77,18
149,-1012,4144,111,-89,50
137,-969,4096,118,-99,82
170,-1027,4118,125,-111,101
182,-978,4117,156,-106,124
155,-895,4094,197,-99,136
125,-824,4104,239,-101,143
76,-792,4055,276,-89,156
31,-758,3855,293,-86,172
37,-876,3743,268,-127,195
71,-929,3839,243,-167,244
66,-793,3829,248,-182,294
117,-682,3872,286,-195,295
205,-728,3925,327,-195,281
207,-614,3906,371,-184,290
163,-548,3755,379,-182,302
108,-688,3709,361,-207,321
16,-593,3604,375,-239,364
-2,-355,3604,357,-281,392
25,-137,3763,395,-325,361
60,-141,3688,424,-349,319
132,-109,3804,353,-379,323
150,-47,3870,327,-390,327
164,-28,3782,304,-403,330
213,-159,3703,246,-439,356
199,-88,4141,241,-469,397
200,-118,3708,314,-404,421
236,-35,3701,363,-460,428
345,109,3938,384,-492,419
468,225,3934,406,-480,380
544,252,4026,436,-469,322
539,260,3953,426,-439,286
492,111,4023,422,-437,275
484,333,3839,495,-442,287
568,469,3824,404,-482,322
613,450,4182,255,-530,365
561,444,3968,245,-531,400
531,509,3850,163,-591,436
588,353,4304,174,-606,428
685,231,3690,285,-568,427
826,305,3853,298,-645,437
903,553,4041,358,-683,415
980,512,4112,349,-661,389
1050,489,4110,353,-635,378
1050,489,4110,353,-635,378
998,623,4018,320,-618,384
997,561,4103,267,-618,387
948,445,3878,338,-623,379
932,467,3748,300,-663,417
982,664,3938,254,-715,443
1029,524,3862,285,-742,406
1125,673,3834,191,-778,423
1287,664,4440,109,-811,422
1304,695,4424,187,-732,387
1402,803,4435,225,-690,367
1459,599,4639,248,-592,356
1347,708,3949,433,-544,354
1265,785,3833,419,-650,378
1319,933,4050,204,-745,432
1366,732,4126,177,-797,417
1518,866,4032,114,-844,432
1578,544,3984,84,-854,380
1853,667,4685,190,-933,354
2040,730,4993,229,-780,355
2029,950,4368,337,-657,330
1987,841,4535,270,-648,317
1943,856,4518,200,-604,348
1799,934,4321,161,-576,364
1677,722,4283,118,-584,354
1646,576,4170,145,-600,356
1705,682,4262,175,-623,357
1766,838,4280,224,-619,323
1809,845,4261,230,-615,283
1915,854,4298,206,-622,264
2036,932,4608,169,-622,250
2079,899,4717,161,-565,235
2053,861,4640,164,-506,234
2000,913,4506,161,-466,234
2055,832,4437,151,-453,226
2085,710,4406,124,-447,246
2017,974,4369,108,-441,269
2051,1046,4402,106,-440,234
2170,979,4515,50,-428,212
2314,1112,4859,62,-387,184
2332,1114,4622,98,-296,139
2324,814,4665,68,-249,125
2280,981,4559,49,-194,151
2153,1019,4450,54,-166,139
2044,1066,4200,53,-162,115
2022,902,4224,0,-195,91
2108,901,4308,-20,-215,86
2182,810,4340,-47,-210,85
2206,828,4283,-109,-188,106
2218,712,4390,-199,-170,110
2244,543,4433,-108,-122,91
2269,716,4239,-65,-62,89
2256,731,4341,-64,-31,66
2223,595,4175,-43,8,48
2193,704,4196,-38,25,48
2068,805,4166,-20,54,17
1973,603,3908,-5,60,-12
1962,549,3941,-44,21,9
1970,646,4012,-77,-1,35
1975,628,3967,-85,-7,30
1984,567,3957,-85,-5,14
2029,476,3940,-81,0,8
2071,471,3973,-84,11,16
2028,485,3909,-81,38,18
1996,433,3828,-67,55,4
2032,366,3818,-55,57,-5
2029,405,3836,-63,63,0
1978,409,3784,-69,64,0
1952,378,3796,-69,52,0
1952,378,3796,-69,52,0
1960,431,3823,-61,47,-6
1968,434,3852,-57,46,-18
1918,352,3742,-62,49,-19
1874,300,3698,-66,34,-7
1910,260,3706,-50,17,-5
1965,248,3776,-34,9,-2
1993,260,3786,-22,13,3
2022,384,3872,-15,17,8
2021,410,3881,-10,29,-5
2010,318,3905,-9,38,-11
2002,455,3897,-1,48,-6
1979,386,3839,-5,55,-17
1909,335,3765,-20,46,-10
1895,339,3763,-38,26,0
1925,236,3818,-54,12,7
1926,300,3854,-50,12,14
1904,306,3788,-39,18,5
1903,270,3787,-41,6,3
1940,375,3831,-45,-2,8
1988,269,3834,-45,-6,-1
2028,141,3819,-51,-5,7
2045,284,3841,-63,0,30
2050,93,3950,-72,3,23
2068,201,3883,-29,24,34
2097,312,3902,-37,25,36
2133,217,4004,-37,30,27
2097,250,3936,-33,52,34


149,574,4397,-285,-55,-486
173,295,4447,-334,-54,-499
174,240,4496,-345,-41,-484
113,430,4376,-334,-14,-500
126,211,4398,-304,0,-574
102,-99,4309,-268,22,-609
34,-67,4202,-253,27,-596
37,-109,4258,-245,7,-603
120,-228,4350,-235,-10,-602
152,-70,4443,-222,-16,-587
125,27,4429,-203,-1,-611
98,-93,4481,-161,4,-662
99,36,4291,-159,17,-694
165,-236,4404,-206,-1,-735
271,-435,4484,-209,-11,-720
309,-334,4516,-235,-3,-666
233,-316,4502,-254,9,-649
208,-411,4544,-230,24,-664
254,-521,4726,-155,58,-683
232,-254,4390,-134,127,-693
158,-410,4252,-220,112,-739
172,-750,4492,-212,77,-759
210,-790,4455,-65,92,-748
158,-506,4015,-28,88,-729
208,-776,4159,-155,32,-716
266,-985,4250,-193,15,-680
310,-963,4311,-177,12,-631
303,-777,4446,-176,29,-604
263,-661,4514,-167,75,-624
249,-754,4409,-94,112,-675
258,-1015,4329,-70,114,-676
219,-964,4255,-82,100,-626
217,-947,4254,-153,85,-575
191,-1113,4372,-170,68,-555
190,-1101,4376,-167,77,-519
242,-1078,4508,-98,84,-514
186,-1004,4454,-37,117,-513
159,-884,4334,-36,135,-511
184,-1054,4521,2,136,-538
130,-1142,4030,38,166,-520
134,-1267,4156,-99,120,-440
140,-1084,4220,-86,95,-402
104,-1338,4083,-110,87,-381
125,-1253,4218,-143,67,-324
138,-1161,4251,-112,68,-311
73,-1364,4153,-32,80,-339
-3,-1436,3988,-43,90,-314
-47,-1569,4042,-29,74,-297
-45,-1607,3939,17,63,-259
-28,-1420,4057,63,34,-224
-38,-1254,4013,59,26,-204
31,-1372,4134,18,18,-188
18,-1531,3991,18,25,-149
-15,-1329,3910,15,0,-102
-69,-1350,3922,5,-22,-95
-69,-1350,3922,5,-22,-95
-73,-1447,3790,22,-42,-84
-70,-1619,3720,11,-84,-45
-47,-1631,3795,12,-130,16
-12,-1579,3785,41,-150,66
2,-1588,3693,69,-163,98
-23,-1488,3700,104,-180,121
-40,-1307,3669,174,-191,111
-28,-1486,3635,239,-197,78
-1,-1476,3668,293,-206,94
0,-1196,3696,335,-210,121
30,-1177,3693,355,-218,127
64,-1115,3750,338,-237,173
16,-806,3713,288,-257,246
-26,-669,3656,203,-290,279
59,-786,3798,117,-330,294
101,-751,3958,159,-334,296
1,-627,3601,159,-307,306
-49,-760,3643,112,-344,298
-78,-850,3561,147,-384,301
-17,-779,3541,110,-431,313
27,-1119,3693,96,-478,325
37,-856,3707,166,-502,387
20,-288,3683,171,-519,399
53,-390,3884,180,-547,313
163,-412,3956,259,-559,263
299,-368,3917,240,-568,270
353,-386,3915,149,-604,316
406,-501,3914,-36,-664,387
454,-526,4528,-54,-655,435
488,-355,4103,96,-563,423
469,-307,4121,227,-550,345
483,-175,3964,280,-526,285
542,-366,3895,276,-553,255
616,-385,4022,276,-596,276
655,-191,4134,276,-600,309
720,8,3973,287,-587,307
781,8,4213,212,-629,290
724,-348,4488,185,-565,314
645,-226,3725,355,-526,352
610,-39,3557,345,-648,376
663,-260,3853,228,-739,380
821,-258,3906,283,-750,376
977,-23,4056,295,-742,355
1055,180,4439,415,-698,256
1086,152,4267,483,-604,167
1003,102,4274,383,-566,168
887,167,4068,326,-576,195
868,-230,3961,195,-622,273
955,109,4280,141,-695,379
921,14,4008,194,-664,371
1082,125,3839,273,-715,334
1228,258,4177,278,-779,261
1284,87,4375,262,-765,198
1360,96,4296,303,-725,166
1396,-14,4388,302,-687,154
1411,-60,4214,319,-645,184
1363,60,4158,331,-638,223
1377,161,4130,354,-662,233
1480,284,4291,327,-701,239
1575,196,4392,263,-718,244
1655,173,4492,207,-715,266
1701,129,4506,198,-685,268
1771,206,4536,199,-643,261
1709,297,4546,228,-572,220
1685,61,4170,332,-546,151
1724,-69,4368,333,-586,157
1731,104,4379,305,-582,198
1803,169,4403,301,-583,195
1943,77,4501,303,-578,178
1961,195,4502,278,-551,188
1913,243,4474,246,-535,188
1913,243,4474,246,-535,188
1999,257,4562,238,-534,178
2118,404,4723,229,-516,173
2110,424,4785,224,-465,159
2088,442,4475,207,-419,156
2050,384,4683,138,-421,153
2014,361,4696,141,-369,154
1969,464,4545,144,-315,155
1855,438,4480,95,-292,133
1759,306,4339,60,-289,131
1769,249,4388,83,-309,130
1802,386,4363,106,-327,145
1856,488,4448,93,-335,136
1933,281,4423,77,-330,125
2007,354,4530,48,-330,155
2079,487,4591,38,-310,160
2121,464,4681,47,-271,131
2080,556,4579,69,-211,91
2007,283,4448,80,-175,42
1946,180,4274,76,-172,54
1948,328,4236,29,-203,92
1956,252,4283,-10,-233,98
2017,251,4298,-32,-247,103
2079,219,4424,-23,-240,105
2094,292,4374,-17,-200,109
2079,288,4338,3,-155,85
2057,247,4215,27,-108,58
1999,193,4150,27,-82,44
1935,115,4047,14,-74,52
1917,171,4031,13,-84,62
1929,163,3969,10,-97,54
1966,103,3993,-3,-122,56
2008,117,4048,-8,-135,59
2021,78,4076,5,-130,46
2048,51,4086,24,-116,34
2101,105,4194,31,-96,34
2126,189,4297,41,-57,32
2052,285,4182,46,-15,32
1959,340,4067,19,-3,31
1918,243,4027,-8,-18,23
1904,221,3991,-26,-33,22
1881,275,3985,-35,-43,15
1896,91,3900,-47,-55,4
1949,3,3918,-71,-76,26
2014,131,4012,-80,-80,49
2079,142,4072,-50,-53,25
2077,138,4066,-7,-3,-10
2004,43,3909,21,32,-36
1970,27,3870,17,29,-31
1957,90,3898,0,15,-13
1947,87,3928,-13,3,-13
1933,17,3878,-8,0,-18
1905,65,3862,-12,-4,-12
1894,73,3896,-27,-20,-11
1909,87,3905,-39,-35,-7
1941,79,3889,-44,-45,-5
2004,30,3967,-45,-51,-10
2035,45,4048,-37,-37,-14
2061,5,4027,-13,-7,-21
2061,18,3957,-10,12,-16
2044,94,3985,-20,22,-10
1987,42,3906,-18,36,-18
1940,56,3814,-12,38,-26
1935,26,3807,-9,26,-41
1929,-92,3781,-6,21,-45
1894,-116,3733,-15,11,-24
1904,-24,3814,-20,-6,-10
1977,-69,3866,-8,-11,-22
2008,-31,3946,3,0,-27
2008,-31,3946,3,0,-27
1997,-8,3941,19,19,-36
2006,-7,3964,34,30,-41
2016,74,3961,31,39,-34


155,426,4299,75,129,-617
104,580,4302,70,126,-616
19,499,4188,75,116,-650
-7,249,4155,45,87,-663
15,120,4085,-10,55,-629
30,167,4131,-60,17,-594
101,218,4277,-98,-2,-593
150,326,4436,-128,4,-609
150,326,4436,-128,4,-609
117,270,4397,-139,19,-641
53,256,4305,-173,13,-647
49,177,4316,-201,-16,-659
112,108,4450,-195,-41,-676
144,177,4560,-156,-32,-698
92,137,4436,-130,-7,-722
77,-67,4364,-143,-23,-716
148,-76,4514,-176,-55,-671
269,-37,4640,-188,-57,-634
366,76,4780,-187,-21,-622
321,164,4725,-140,38,-658
285,81,4490,-163,88,-701
254,-265,4512,-182,89,-732
220,-369,4419,-162,91,-700
216,-262,4418,-174,79,-652
195,-475,4738,-150,77,-633
225,-205,4387,-100,159,-577
156,-250,3858,-244,132,-597
275,-757,4458,-278,11,-614
362,-633,4567,-223,29,-557
289,-402,4491,-208,72,-530
255,-461,4479,-214,90,-553
204,-747,4357,-217,103,-562
221,-710,4352,-283,102,-505
170,-776,4459,-259,97,-483
125,-555,4375,-170,113,-479
111,-572,4235,-138,112,-516
129,-881,4213,-156,96,-540
122,-1190,4245,-129,86,-520
79,-1168,4150,-120,83,-445
115,-855,4278,-106,64,-397
116,-878,4272,-110,74,-414
127,-852,4402,-123,77,-403
114,-628,4428,-122,89,-396
52,-928,4415,-149,87,-393
33,-790,4416,-163,73,-317
-14,-596,4212,-214,62,-273
-40,-809,4169,-262,27,-284
-25,-1162,4164,-276,8,-274
-38,-1155,4229,-244,5,-227
-38,-1078,4082,-181,11,-216
0,-1263,4158,-142,-4,-216
22,-1142,4227,-91,-2,-187
39,-954,4184,-50,3,-181
66,-1100,4231,-46,1,-182
54,-1158,4150,-47,2,-133
19,-1083,4050,-75,-7,-74
1,-1139,3945,-91,-32,-39
-15,-1193,3926,-94,-60,-9
-19,-1240,3916,-59,-77,0
11,-1223,3922,0,-82,0
17,-1254,3866,50,-82,0
12,-1298,3801,88,-91,17
19,-1146,3780,122,-115,49
35,-1241,3710,144,-135,61
60,-1377,3803,155,-160,92
65,-1144,3823,199,-162,146
46,-966,3721,233,-161,161
80,-1035,3737,255,-174,157
78,-1124,3669,272,-177,183
-5,-970,3532,266,-191,236
-37,-844,3459,257,-223,264
-17,-903,3470,243,-258,275
-92,-956,3325,225,-284,309
-89,-661,3379,180,-330,356
-97,-645,3593,251,-367,312
-43,-733,3584,350,-369,271
30,-553,3708,367,-379,281
102,-345,3965,404,-374,271
102,-345,3965,404,-374,271
107,-534,3853,470,-344,246
93,-436,3648,460,-341,280
0,-285,3515,368,-398,315
138,-299,4024,342,-429,341
110,-140,3405,450,-408,357
120,-47,3435,378,-509,384
183,-221,3730,278,-596,409
302,-157,3875,178,-633,469
400,271,4240,225,-639,460
393,159,4083,273,-584,379
469,-156,4063,225,-550,348
451,36,4287,245,-525,349
309,405,3929,341,-502,300
299,71,4379,275,-523,254
394,-69,4244,362,-475,278
393,171,3664,400,-545,335
549,258,4043,254,-720,375
745,67,4248,160,-778,408
1042,-65,4428,67,-779,465
1256,-59,4758,163,-740,454
1272,185,4588,206,-637,433
1318,283,4759,192,-571,379
1261,251,4793,163,-485,308
1122,276,4801,254,-403,248
890,292,4343,339,-347,197
843,315,4382,308,-389,219
790,52,4197,303,-385,264
813,311,3728,344,-488,337
932,494,3987,205,-654,374
1135,169,4658,110,-723,342
1191,182,4551,187,-645,341
1219,409,4564,186,-579,328
1188,181,4571,204,-497,279
1123,130,4188,275,-424,270
1044,190,4059,273,-436,286
999,320,4231,333,-477,269
1019,702,4132,377,-500,240
1048,651,4177,313,-545,197
1023,567,4021,239,-587,197
1044,398,3896,126,-649,236
1095,129,4008,5,-712,306
1254,163,3939,-6,-741,372
1401,194,4397,70,-781,353
1453,278,4480,195,-715,311
1489,545,4518,271,-636,254
1528,445,4469,386,-565,155
1606,404,4321,405,-515,130
1606,531,4426,358,-499,149
1584,632,4305,328,-483,166
1564,708,4240,232,-510,197
1563,676,4418,140,-566,218
1638,601,4394,107,-604,228
1783,479,4439,0,-637,267
1907,573,4723,-11,-656,271
1950,430,4706,32,-608,242
1990,439,4775,67,-543,233
1992,461,4785,121,-461,206
2001,698,4809,143,-381,191
1979,912,4877,126,-301,150
