acc_X,acc_Y,acc_Z,gyro_X,gyro_Y,gyro_Z
286,-152,5372,328,174,449
361,43,5402,410,216,473
483,131,5362,467,254,497
572,235,5420,456,287,544
598,370,5393,444,328,590
617,308,5344,437,369,613
646,246,5324,420,411,661
592,495,5248,404,451,736
531,852,5158,393,485,774
531,1165,5151,407,523,737
569,1340,5150,444,582,653
588,1293,5065,480,653,557
522,1277,4910,478,716,507
413,1359,4733,454,763,497
397,1422,4618,452,784,486
419,1399,4499,459,798,476
425,1613,4445,426,807,493
460,1950,4423,391,817,484
465,2109,4369,366,838,415
416,2170,4267,313,867,328
379,2155,4171,271,885,235
327,2188,4158,237,900,153
310,2123,4123,210,926,74
276,2001,4089,172,958,30
143,2150,3917,113,984,38
-36,2322,3755,20,984,29
-186,2303,3606,-55,962,-17
-252,2067,3500,-127,926,-65
-310,1960,3442,-190,882,-73
-359,2096,3377,-253,841,-69
-350,2165,3384,-296,800,-106
-264,2047,3386,-301,770,-171
-238,1969,3398,-335,756,-202
-289,2066,3268,-350,751,-221
-388,2030,3068,-389,722,-267
-483,1909,2980,-459,664,-314
-528,1754,2936,-513,601,-358
-594,1739,2914,-544,543,-390
-646,1959,2950,-572,495,-444
-703,2068,2984,-623,463,-543
-720,1821,2991,-664,429,-651
-750,1566,2991,-702,393,-704
-818,1742,3003,-778,352,-708
-889,1722,3016,-884,310,-749
-995,1202,2892,-968,264,-795
-1142,913,2738,-1027,193,-773
-1259,692,2657,-1071,101,-746
-1312,497,2723,-1083,3,-740
-1306,508,2833,-1028,-79,-750
-1273,382,2836,-978,-143,-780
-1273,382,2836,-978,-143,-780
-1222,99,2940,-968,-210,-795
-1205,-200,2976,-905,-258,-790
-1192,-452,2890,-801,-302,-775
-1096,-593,2965,-717,-368,-743
-1005,-642,3042,-663,-424,-703
-906,-906,3089,-657,-471,-662
-845,-1120,3121,-655,-519,-597
-791,-1280,3154,-634,-569,-525
-747,-1312,3330,-593,-617,-452
-719,-1312,3383,-524,-641,-403
-672,-1588,3404,-450,-668,-387
-646,-1909,3438,-374,-705,-323
-613,-1867,3486,-325,-750,-206
-600,-1533,3639,-296,-787,-116
-582,-1422,3738,-224,-806,-104
-494,-1504,3776,-138,-821,-100
-458,-1520,3815,-132,-852,-22
-495,-1656,3857,-174,-883,100
-539,-1664,3759,-156,-921,220
-459,-1577,3979,-84,-969,267
-255,-1432,4232,37,-968,267
-18,-1533,4375,139,-936,245
196,-1866,4545,185,-917,304
308,-1829,4668,171,-883,473
292,-1580,4724,177,-841,624
319,-1324,4880,257,-795,679
381,-1160,4945,409,-728,662
451,-1068,4876,522,-663,651
478,-1324,4783,578,-621,678
557,-1479,4884,630,-593,782
494,-1286,4752,744,-522,894
483,-804,4468,892,-510,952
547,-906,4537,946,-533,942
614,-942,4508,1005,-524,994
700,-737,4435,1065,-524,1079
727,-338,4506,1114,-527,1148
694,158,4735,1203,-502,1155
694,741,4614,1356,-432,1107
801,1080,4551,1407,-397,1025
864,783,4349,1324,-377,996
777,750,4158,1179,-390,1075
647,914,4052,1085,-412,1153
583,1159,3977,1072,-442,1156
552,1328,3978,1103,-476,1098
628,1503,4062,1136,-508,1045
677,1840,4173,1163,-520,1002
707,2511,4234,1143,-510,925
772,2587,4214,1025,-490,785
763,1978,4126,882,-483,682
663,1866,4031,784,-488,699
610,2142,3925,731,-510,718
629,2374,3984,709,-546,673
690,2528,4042,666,-573,601
758,2288,4003,575,-600,543
766,2058,3935,477,-635,550
744,2256,3967,388,-676,582
773,2586,4102,363,-708,532
852,2651,4240,399,-694,393
908,2595,4065,430,-654,245
911,2561,4130,387,-638,130
879,2611,4157,343,-614,53
801,2486,3798,295,-600,-10
710,2531,3763,191,-668,-40
625,2490,3710,85,-738,-76
720,2262,3743,18,-818,-113
875,2191,3921,-35,-887,-120
1003,2494,4090,-104,-913,-123
1003,2494,4090,-104,-913,-123
1144,2567,4260,-173,-903,-182
1241,2521,4327,-208,-853,-269
1267,2520,4312,-238,-792,-364
1285,2485,4346,-263,-736,-461
1304,2293,4307,-259,-679,-552
1328,2119,4098,-261,-656,-593
1343,2060,4197,-345,-676,-581
1366,1906,4177,-430,-670,-552
1412,1814,4132,-499,-679,-522
1463,1959,4195,-551,-696,-521
1537,1862,4265,-564,-691,-572
1591,1626,4278,-562,-670,-637
1634,1605,4327,-552,-641,-675
1709,1572,4305,-565,-606,-725
1732,1397,4429,-593,-571,-766
1738,1360,4463,-559,-519,-792
1765,1279,4464,-490,-478,-839
1868,1057,4628,-452,-442,-866
1962,1001,4732,-444,-377,-847
1885,1095,4650,-469,-309,-833
1870,1016,4648,-552,-279,-842
1950,707,4927,-624,-266,-838
2003,669,5091,-642,-212,-802
2016,717,5192,-673,-137,-781
2025,566,5227,-719,-54,-782
1923,319,5164,-732,12,-778
1896,121,5169,-710,74,-733
1884,42,4997,-726,132,-676
1840,-97,5024,-762,158,-639
1789,-319,5051,-719,194,-605
1729,-378,4826,-644,241,-563
1707,-551,4908,-580,239,-547
1727,-633,5073,-460,275,-502
1739,-602,4986,-340,356,-444
1738,-567,4969,-270,430,-382
1610,-641,4855,-232,503,-309
1494,-532,4796,-191,560,-222
1373,-285,4785,-116,608,-175
1324,-212,4846,16,663,-167
1313,176,4301,83,702,-167
1244,-134,4700,37,632,-207
1300,-290,4695,110,681,-140
1313,-135,4351,152,717,-57
1287,21,4445,80,695,-6
1261,96,4542,52,704,11
1218,145,4548,82,736,10
1157,174,4506,111,766,17
1119,90,4454,124,791,37
1094,116,4446,155,810,76
998,288,4318,195,832,116
894,484,4131,185,835,137
857,449,4125,144,812,134
835,450,4028,134,798,143
782,556,3876,111,775,164
761,456,3855,54,729,181
819,105,3992,63,694,227
906,271,3781,111,696,346
890,626,3816,70,660,405
832,695,3862,70,659,383
748,666,3712,135,682,339
679,678,3666,199,683,301
639,790,3660,242,680,286
611,1017,3688,280,675,275
560,1218,3732,299,669,249
523,1206,3732,303,666,216
474,1237,3696,292,663,203
432,1257,3631,269,648,199
385,1256,3561,227,617,205
430,1154,3596,176,574,220
421,1188,3568,128,543,250
421,1188,3568,128,543,250
366,1337,3500,102,508,263
372,1249,3556,59,458,245
390,1203,3662,7,420,250
420,1261,3745,-21,397,256
391,1226,3734,-51,392,249
390,1191,3866,-93,389,246
351,1325,3945,-132,409,248
261,1434,3906,-172,437,234
170,1335,3889,-210,445,204
73,1164,3815,-230,439,184


290,481,4585,93,-29,-31
324,419,4676,155,16,11
315,482,4692,198,32,26
338,598,4731,224,52,22
356,628,4808,242,74,3
371,562,4810,260,97,-9
384,481,4770,262,116,2
347,515,4703,264,129,32
328,586,4666,268,134,52
401,565,4718,281,140,57
446,572,4750,293,164,69
455,554,4722,283,200,94
417,533,4683,264,228,128
381,544,4669,249,248,161
381,544,4669,249,248,161
339,598,4637,240,271,180
287,620,4623,246,295,181
228,570,4543,268,318,171
226,529,4568,268,328,178
203,628,4663,274,342,195
174,748,4744,294,368,203
196,668,4807,324,398,191
195,527,4810,317,432,215
204,506,4847,281,461,277
172,732,4840,261,491,336
192,1022,4900,242,518,352
255,1139,4900,252,550,315
307,1275,5008,269,581,272
342,1471,5057,318,619,225
380,1646,5055,303,664,183
419,1780,5100,249,703,152
432,1884,5089,222,741,129
463,1968,5138,164,787,109
507,2060,5166,78,859,94
437,2236,5013,-22,944,82
282,2494,4777,-153,1005,72
95,2528,4524,-298,1028,33
-78,2385,4236,-433,1012,-3
-190,2283,4000,-559,964,-11
-268,2264,3858,-672,894,-9
-346,2315,3673,-750,822,-28
-313,2264,3558,-832,757,-78
-281,2131,3475,-914,709,-131
-294,2051,3292,-1000,682,-168
-294,1830,3130,-1060,652,-211
-336,1586,2986,-1119,629,-244
-450,1704,2862,-1172,613,-259
-586,1951,2720,-1187,593,-330
-727,1847,2474,-1218,559,-467
-858,1526,2292,-1287,484,-581
-957,1114,2157,-1372,384,-642
-1015,830,2146,-1435,255,-653
-1004,683,2204,-1457,137,-649
-987,541,2301,-1401,42,-666
-974,440,2405,-1278,-27,-702
-1001,227,2341,-1174,-76,-744
-1010,147,2403,-1134,-136,-755
-957,263,2586,-1074,-198,-770
-927,271,2626,-1024,-242,-805
-891,-73,2687,-1020,-294,-832
-925,-601,2686,-1002,-363,-814
-1039,-910,2697,-964,-448,-737
-1098,-770,2770,-910,-548,-655
-1021,-698,2940,-846,-645,-649
-836,-1068,3116,-733,-724,-708
-577,-1462,3363,-643,-774,-703
-403,-1477,3720,-626,-787,-596
-383,-943,3899,-605,-764,-473
-416,-892,3852,-549,-743,-461
-436,-1391,3791,-513,-750,-468
-420,-1565,3804,-493,-789,-395
-322,-1532,3833,-448,-844,-320
-168,-1715,3978,-428,-902,-254
-58,-2016,3958,-438,-930,-148
35,-2431,3874,-407,-972,-36
87,-2708,4016,-340,-1001,77
156,-2499,4119,-175,-988,179
301,-2309,4283,32,-946,192
403,-2203,4466,231,-880,183
438,-1981,4524,362,-803,212
431,-1801,4499,431,-750,225
453,-1974,4557,510,-738,257
538,-1988,4568,553,-727,365
538,-1988,4568,553,-727,365
541,-1967,4524,548,-716,489
462,-2002,4286,579,-699,594
417,-2157,4113,657,-700,656
450,-1894,4321,811,-706,690
525,-1449,4502,1057,-636,645
682,-1332,4360,1323,-579,585
871,-1315,4419,1430,-567,608
952,-1157,4512,1461,-545,698
947,-683,4554,1515,-502,797
968,-249,4385,1547,-459,841
921,-156,4234,1517,-445,847
811,-98,4109,1484,-451,875
782,278,4108,1459,-473,909
763,567,3905,1442,-495,881
868,614,4194,1381,-539,827
1009,478,4255,1402,-492,788
1098,726,4369,1463,-467,798
1123,1065,4343,1536,-411,800
1142,1152,4114,1598,-392,781
1141,1307,4027,1575,-414,792
1180,1825,3986,1457,-454,818
1213,1720,4103,1313,-486,782
1182,1658,3984,1213,-494,777
1099,1631,3756,1115,-520,785
996,1612,3593,1048,-577,778
980,1787,3620,1051,-641,735
1074,1862,3655,1087,-681,659
1190,1885,3711,1095,-709,597
1264,2007,3838,1096,-707,552
1296,2130,3846,1111,-693,507
1249,2469,3857,1084,-664,464
1262,2867,3895,999,-677,394
1321,2961,4131,880,-689,292
1252,2948,4121,775,-651,204
1158,2989,3921,713,-638,126
1118,2955,3876,645,-673,57
1155,2962,4049,572,-720,20
1229,3405,4146,510,-751,5
1288,3702,4246,406,-771,-71
1337,3534,4342,268,-776,-194
1368,3480,4469,150,-758,-295
1388,3433,4309,68,-742,-400
1410,3182,4403,-43,-755,-495
1357,3129,4371,-110,-733,-548
1308,3145,4153,-161,-719,-603
1299,3002,4057,-255,-737,-673
1336,2912,4085,-363,-768,-721
1400,2719,3980,-457,-791,-751
1451,2408,3858,-577,-828,-754
1519,2163,3970,-691,-872,-730
1592,1952,4089,-725,-888,-708
1635,1780,4177,-720,-871,-684
1681,1853,4333,-659,-834,-666
1750,1790,4333,-604,-760,-702
1846,1626,4254,-607,-681,-758
1935,1589,4445,-635,-619,-801
1970,1600,4495,-606,-537,-852
2016,1441,4404,-549,-468,-911
2130,1019,4544,-559,-420,-942
2205,748,4654,-592,-350,-903
2222,703,4695,-631,-269,-821
2212,801,4715,-672,-184,-765
2207,710,4778,-707,-115,-772
2205,458,4807,-671,-46,-784
2226,169,4783,-642,20,-775
2256,-31,4857,-634,79,-723
2259,-84,4912,-642,156,-649
2233,-78,5019,-632,233,-579
2137,-77,4945,-613,333,-533
2018,-238,4878,-555,406,-505
2018,-238,4878,-555,406,-505
1977,-378,4847,-454,458,-461
1944,-465,4850,-348,515,-393
1881,-181,4522,-328,560,-325
1752,-364,4803,-288,537,-311
1790,-400,4789,-195,609,-235
1768,-305,4606,-182,670,-162
1704,-173,4637,-238,696,-102
1640,-115,4671,-280,735,-49
1512,-8,4526,-263,782,-3
1352,1,4390,-211,804,14
1265,21,4365,-166,812,33
1148,140,4300,-99,825,53
1028,234,4125,-18,821,66
1017,205,4106,3,785,90
1142,135,4188,4,751,137
1232,335,4322,16,738,207
1259,617,4357,17,757,238
1245,596,4316,32,795,214
1185,453,4174,60,829,205
1073,490,4011,22,818,237
963,548,4075,-21,796,269
848,669,4011,3,790,288
767,905,3916,69,766,269
757,949,3947,113,734,214
763,857,3964,121,709,183
704,845,3880,103,694,198
676,803,3876,55,667,231
660,802,3987,0,647,279
600,1025,3866,-7,647,314
581,1087,3750,3,629,297
621,1013,3773,-4,595,273
696,1044,3806,-25,569,273
739,1113,3864,-58,555,273
691,1015,3771,-82,552,260
613,948,3692,-87,534,255
549,1069,3656,-77,499,246
516,1136,3625,-53,458,214
556,1131,3686,-43,413,180
631,1129,3799,-57,381,165
730,1087,3966,-135,377,179
745,1141,4108,-178,400,218
681,1304,4074,-167,431,250
611,1361,3969,-136,448,241
532,1272,3867,-94,445,216
475,1231,3777,-83,429,203


538,535,5334,63,459,278
554,512,5397,105,523,287
559,691,5455,124,593,319
556,885,5406,162,656,324
546,899,5392,142,707,316
579,914,5405,115,758,330
626,1010,5265,60,816,365
616,1193,5264,-60,858,407
593,1396,5245,-166,904,416
578,1415,5239,-250,959,385
552,1386,5201,-300,1022,359
484,1391,4968,-334,1091,356
341,1429,4752,-345,1130,362
135,1593,4547,-317,1136,353
17,1724,4435,-298,1116,309
-42,1734,4363,-287,1096,240
-115,1640,4168,-282,1085,170
-216,1568,4013,-321,1065,124
-287,1636,3918,-397,1033,105
-322,1566,3845,-459,995,81
-376,1490,3816,-520,960,72
-415,1630,3789,-567,950,77
-497,1656,3614,-627,950,53
-618,1613,3427,-716,938,23
-743,1595,3330,-785,907,-2
-865,1545,3194,-802,858,-42
-969,1545,3075,-804,797,-90
-1023,1531,3013,-790,724,-145
-1049,1562,2887,-784,653,-205
-1011,1596,2863,-841,582,-268
-941,1383,2897,-875,503,-347
-941,1383,2897,-875,503,-347
-933,1118,2880,-901,441,-386
-960,1090,2879,-936,398,-384
-964,1124,2890,-931,362,-409
-939,992,2841,-897,328,-460
-925,795,2873,-903,291,-486
-973,753,2900,-929,254,-481
-1110,810,2865,-950,211,-479
-1172,778,2880,-940,152,-515
-1193,562,2892,-880,93,-586
-1236,424,2844,-805,29,-637
-1254,408,2820,-777,-41,-667
-1244,313,2872,-755,-120,-717
-1275,22,2870,-704,-194,-769
-1280,-131,2799,-701,-264,-773
-1240,-324,2856,-746,-349,-752
-1138,-616,2982,-766,-435,-716
-1040,-684,3143,-779,-507,-643
-939,-415,3376,-749,-549,-582
-880,-394,3351,-628,-560,-602
-920,-581,3188,-516,-576,-645
-939,-793,3035,-455,-624,-646
-932,-1141,2985,-419,-699,-619
-870,-1316,3091,-373,-789,-550
-803,-1201,3203,-341,-858,-472
-753,-1237,3284,-301,-907,-461
-658,-1437,3413,-244,-952,-471
-451,-1512,3554,-183,-982,-447
-263,-1513,3782,-150,-999,-402
-140,-1539,3909,-125,-972,-332
-43,-1690,3902,-95,-952,-248
13,-1934,4039,-114,-956,-136
-50,-2057,4147,-76,-951,-13
-161,-2014,4002,48,-946,76
-123,-2212,3978,165,-972,126
29,-2368,4076,301,-998,179
192,-2066,4260,410,-992,248
335,-1651,4572,515,-947,254
475,-1645,4699,647,-867,207
604,-1862,4710,708,-796,236
662,-1715,4829,723,-751,347
637,-1370,4885,782,-715,442
691,-1277,5064,880,-658,492
659,-1268,4554,1010,-562,536
654,-1227,4255,1119,-615,599
630,-1157,4251,1132,-665,684
593,-915,4099,1169,-686,749
647,-448,4198,1200,-717,777
756,-254,4374,1254,-737,748
865,-244,4514,1330,-724,724
884,145,4571,1355,-671,765
877,465,4517,1344,-612,787
848,428,4357,1311,-581,787
738,176,4229,1272,-569,816
620,496,3984,1277,-577,886
630,1400,4086,1233,-628,887
719,1555,4239,1253,-653,712
843,1286,4322,1289,-651,557
903,1505,4441,1233,-637,539
921,1860,4385,1131,-618,544
900,1614,4238,996,-617,518
828,1424,4143,835,-632,554
741,1707,4034,734,-660,592
691,1766,3873,710,-706,540
776,1517,3882,667,-770,474
891,1608,4064,622,-827,467
1025,1842,4236,615,-834,454
1112,1823,4270,621,-816,403
1074,2046,4310,619,-795,353
985,2391,4243,596,-727,270
968,2376,3976,547,-750,150
968,2376,3976,547,-750,150
992,2087,4227,450,-798,63
940,2120,4109,403,-777,47
950,2380,4122,367,-796,26
1010,2495,4204,333,-820,-41
1113,2332,4269,290,-831,-115
1156,2193,4314,236,-830,-144
1152,2440,4337,184,-828,-156
1217,2685,4570,143,-824,-228
1284,2616,4420,141,-804,-347
1322,2456,4499,112,-825,-442
1347,2317,4543,70,-808,-492
1430,2226,4541,36,-792,-515
1562,2182,4591,-34,-778,-530
1677,2189,4708,-127,-755,-542
1782,2191,4772,-194,-724,-569
1892,1996,4854,-267,-685,-607
1969,1754,4932,-338,-631,-607
1994,1657,4895,-394,-568,-576
2004,1578,4924,-464,-505,-560
2035,1499,4930,-504,-438,-567
2075,1484,4996,-516,-370,-588
2104,1410,5042,-502,-295,-630
2128,1210,5002,-466,-221,-680
2128,1092,4955,-457,-157,-707
2124,979,4987,-462,-106,-726
2132,772,4993,-445,-47,-729
2203,524,4959,-433,13,-716
2243,419,5101,-423,71,-669
2213,489,5123,-381,149,-621
2169,396,5025,-391,229,-591
2094,198,5002,-427,294,-549
2025,153,4920,-449,360,-489
1980,187,4842,-477,403,-462
1951,-39,4968,-475,440,-460
1938,-56,4973,-423,516,-416
1883,-28,4845,-363,583,-380
1860,-184,4773,-316,627,-350
1810,-272,4798,-287,658,-301
1761,-291,4864,-221,705,-249
1769,-26,4650,-145,779,-196
1686,14,4702,-163,782,-210
1649,-224,4888,-131,835,-181
1568,-286,4527,-72,919,-101
1410,-251,4438,-95,930,-22
1316,-120,4411,-101,933,35
1255,-96,4375,-78,939,58
1187,33,4362,-16,949,68
1068,28,4224,59,960,63
966,-141,4104,73,957,79
881,-67,4073,97,936,125
870,146,4071,144,918,153
889,282,4042,157,910,162
902,251,4087,138,900,173
887,328,4022,127,900,209
813,568,3976,96,892,245
754,654,3961,95,878,235
698,584,3898,139,865,217
623,672,3826,167,847,203
588,654,3838,219,814,180
594,481,3897,287,804,195
629,685,3672,294,794,280
551,862,3627,176,737,311
449,857,3808,99,700,313
391,830,3748,109,707,314
358,759,3701,133,705,310
323,837,3709,193,700,305
273,1167,3616,255,695,288
226,1319,3568,260,670,242
226,1319,3568,260,670,242
185,1154,3502,256,635,193
193,1024,3525,224,585,196
190,1164,3525,202,546,224
163,1272,3524,166,510,229
142,1375,3516,138,474,216
156,1397,3562,106,444,189
160,1290,3642,84,424,168
108,1343,3643,64,418,178
38,1394,3605,28,404,184
-36,1401,3587,0,380,177
-80,1459,3529,-27,350,169
-118,1491,3507,-68,306,153
-140,1424,3483,-119,257,133
-126,1243,3552,-200,205,132
-134,1188,3611,-257,159,156
-134,1193,3635,-289,119,173
-91,1131,3620,-323,76,175
-34,1158,3768,-363,32,174
-13,1312,3874,-372,7,153
30,1305,3945,-417,-5,118
59,1118,3985,-463,-20,92
39,951,4091,-445,-39,82
22,937,4080,-378,-45,84
44,1009,4096,-314,-48,74
102,982,4179,-238,-53,37
167,860,4278,-190,-50,22
178,940,4265,-160,-39,40
116,999,4162,-157,-33,49


-343,1965,3811,-404,813,80
-356,1860,3790,-449,798,46
-386,1775,3811,-495,788,40
-386,1775,3811,-495,788,40
-474,1805,3733,-536,789,57
-571,1858,3638,-579,783,52
-666,1871,3533,-620,769,22
-724,1736,3459,-686,743,-6
-765,1608,3461,-702,699,-26
-790,1631,3421,-678,660,-38
-830,1672,3401,-691,630,-64
-890,1584,3332,-697,597,-112
-915,1476,3337,-681,555,-157
-965,1432,3315,-650,521,-200
-991,1372,3315,-641,490,-239
-1026,1311,3317,-632,460,-275
-1066,1271,3372,-619,425,-303
-1122,1164,3295,-607,396,-331
-1166,1094,3290,-616,352,-343
-1163,1155,3361,-608,304,-350
-1192,1216,3325,-579,260,-384
-1192,951,3303,-584,204,-428
-1188,652,3350,-598,137,-432
-1176,808,3434,-603,81,-405
-1114,986,3542,-592,42,-434
-1063,792,3603,-571,19,-510
-1020,644,3658,-551,0,-550
-962,552,3653,-537,-17,-561
-972,456,3607,-554,-34,-552
-958,438,3597,-569,-59,-530
-960,483,3467,-582,-82,-516
-948,599,3413,-632,-121,-515
-932,407,3297,-681,-164,-548
-974,-8,3127,-730,-209,-552
-1048,-278,3068,-764,-271,-509
-1087,-289,3254,-733,-332,-479
-1033,21,3411,-635,-348,-496
-981,-51,3460,-554,-358,-599
-916,-481,3614,-485,-388,-647
-905,-582,3641,-460,-402,-578
-984,-494,3496,-470,-424,-488
-1052,-379,3424,-502,-473,-443
-1070,-526,3386,-522,-534,-450
-1090,-891,3423,-479,-607,-464
-1078,-880,3427,-407,-683,-438
-897,-842,3577,-368,-763,-426
-665,-1209,3803,-328,-825,-434
-527,-1321,3915,-315,-847,-362
-430,-1147,4044,-320,-861,-276
-372,-1320,4222,-312,-840,-241
-323,-1372,4312,-191,-803,-213
-304,-1297,4265,-72,-762,-207
-225,-1447,4314,4,-750,-188
-187,-1279,4464,46,-748,-122
-202,-1114,4430,73,-728,-71
-221,-1290,4365,85,-724,-40
-228,-1435,4282,87,-734,27
-219,-1435,4246,72,-752,105
-198,-1360,4415,114,-761,139
-99,-1152,4502,222,-748,138
13,-1214,4561,334,-736,108
119,-1439,4597,377,-724,135
225,-1481,4595,389,-706,234
252,-1382,4568,383,-688,335
268,-1178,4645,440,-672,387
283,-933,4689,538,-623,382
349,-845,4663,642,-572,347
412,-918,4785,736,-513,332
476,-904,4445,837,-483,385
539,-759,4496,795,-549,479
540,-755,4662,713,-552,564
533,-609,4535,727,-503,625
513,-411,4397,750,-483,638
513,-411,4397,750,-483,638
524,-529,4405,773,-482,622
560,-591,4272,786,-463,664
567,-478,4289,790,-470,726
567,-77,4374,862,-449,741
615,327,4310,945,-413,680
677,261,4376,987,-414,597
728,316,4417,980,-383,597
753,316,4271,955,-347,619
712,219,4137,928,-356,670
686,269,4186,927,-375,747
641,390,3978,980,-371,797
655,493,3846,1047,-405,812
709,588,3829,1090,-445,802
759,936,3948,1103,-474,795
793,1454,4131,1115,-471,747
849,1921,4256,1121,-443,639
903,1882,4277,1104,-412,512
913,1600,4186,1020,-382,468
892,1597,4170,909,-390,516
865,1880,4200,817,-403,563
878,2024,4205,760,-411,550
908,2008,4172,722,-419,512
924,2029,4155,684,-427,478
962,2183,4185,673,-441,438
991,2337,4225,659,-431,377
1018,2469,4122,623,-427,310
994,2299,4140,559,-437,233
910,2060,4079,522,-431,198
812,2234,3925,497,-434,207
736,2427,3822,476,-472,165
752,2586,3966,462,-522,89
808,2708,3930,455,-536,-3
876,2667,3989,444,-582,-89
933,2788,3984,379,-615,-139
940,2786,4066,293,-634,-194
885,2754,3925,276,-637,-262
880,2682,3912,267,-666,-330
904,2644,3882,274,-694,-391
922,2721,3831,239,-729,-443
1001,2688,3943,165,-774,-497
1106,2467,4053,96,-794,-549
1169,2370,4079,49,-798,-572
1204,2510,4132,1,-802,-582
1240,2525,4141,-35,-803,-620
1293,2425,4199,-82,-801,-678
1376,2273,4196,-144,-788,-717
1457,2090,4184,-248,-778,-723
1494,1904,4204,-360,-766,-699
1560,2000,4337,-422,-775,-662
1600,1962,4377,-456,-747,-679
1646,1680,4324,-504,-704,-712
1683,1544,4455,-540,-679,-715
1734,1621,4648,-529,-626,-716
1775,1621,4637,-506,-545,-753
1781,1394,4564,-505,-473,-795
1796,1257,4665,-504,-424,-812
1744,1156,4727,-482,-363,-820
1682,1140,4602,-489,-290,-815
1617,1028,4605,-487,-250,-834
1608,898,4616,-466,-219,-843
1646,570,4659,-448,-193,-835
1707,511,4708,-445,-154,-764
1696,469,4714,-463,-113,-700
1713,311,4800,-478,-66,-645
1736,177,4780,-466,-11,-582
1726,150,4799,-471,32,-510
1739,278,4908,-430,72,-456
1753,289,4895,-356,129,-450
1816,147,4966,-279,175,-446
1816,147,4966,-279,175,-446
1845,10,5012,-211,232,-416
1816,49,4997,-173,301,-345
1815,75,4980,-156,359,-280
1798,-13,4998,-148,413,-223
1717,-133,5090,-138,479,-151
1679,21,4723,-99,570,-61
1584,67,4880,-154,564,-23
1540,183,5094,-120,640,23
1464,610,4803,-11,738,20
1378,564,4757,39,763,-56
1349,187,4719,55,779,-87
1318,-37,4606,56,796,-22
1326,58,4613,38,796,86
1317,392,4637,57,809,156
1308,598,4588,95,837,158
1321,551,4546,114,865,132
1326,431,4520,122,894,130
1269,414,4603,140,924,166
1191,531,4480,255,988,228
1097,915,4026,284,1003,269
1003,823,4194,248,952,236
949,717,4122,282,965,228
943,740,4138,271,969,255
916,821,4167,302,979,275
886,936,4116,352,1004,284
815,1067,4088,377,1025,287
761,1178,4089,420,1043,273
679,1323,3914,431,1062,258
621,1355,3837,375,1052,246
565,1254,3767,340,1027,240
517,1244,3783,322,996,257
442,1426,3696,354,976,266
400,1514,3635,354,950,247
391,1480,3685,358,920,225
409,1500,3666,344,906,226
429,1618,3736,305,899,239
386,1759,3684,291,910,236
333,1804,3587,244,913,224
258,1838,3533,175,907,212
175,1828,3490,142,894,193
94,1741,3429,115,877,179
54,1718,3440,98,854,183
0,1924,3318,82,838,189
-16,1871,3322,-6,810,176
-42,1764,3408,-70,783,176
-131,1803,3407,-65,771,184
-247,1847,3229,-71,759,181
-299,1878,3208,-115,718,169
-341,1865,3286,-153,677,140
-403,1888,3263,-163,643,106
-472,1789,3208,-166,601,70
-478,1631,3198,-202,548,58
-463,1593,3283,-254,495,77
-424,1610,3331,-348,451,114
-417,1535,3403,-460,411,153
-460,1640,3441,-535,376,183


-615,1475,3564,-677,759,-109
-827,1771,3389,-779,733,-128
-900,1655,3423,-810,709,-193
-987,1303,3285,-802,691,-248
-1085,1084,3105,-852,651,-238
-1136,1080,3162,-906,582,-200
-1177,1172,3202,-898,528,-191
-1252,1324,3157,-850,488,-227
-1279,1334,3170,-798,440,-300
-1288,1067,3134,-778,398,-375
-1301,786,3142,-766,351,-398
-1300,803,3169,-765,308,-368
-1336,882,3289,-785,282,-345
-1320,1149,3128,-824,279,-371
-1390,821,3093,-891,222,-487
-1399,426,3291,-933,148,-521
-1342,139,3333,-891,105,-494
-1386,25,3335,-847,65,-444
-1394,363,3450,-784,19,-400
-1413,655,3406,-681,-4,-458
-1415,484,3377,-600,-36,-579
-1404,159,3345,-535,-78,-654
-1333,-123,3372,-543,-125,-644
-1307,-220,3390,-618,-172,-554
-1363,40,3384,-718,-220,-442
-1381,99,3381,-728,-281,-427
-1418,-226,3295,-706,-340,-457
-1396,-458,3360,-706,-404,-442
-1365,-377,3504,-648,-454,-421
-1335,-154,3474,-586,-482,-430
-1277,-327,3519,-523,-520,-487
-1223,-520,3540,-449,-555,-511
-1183,-461,3525,-419,-590,-483
-1084,-552,3625,-424,-636,-459
-978,-874,3728,-457,-668,-425
-927,-1108,3801,-502,-684,-354
-900,-1077,3944,-466,-696,-284
-920,-706,3948,-397,-681,-246
-920,-706,3948,-397,-681,-246
-906,-678,3821,-334,-680,-276
-893,-1174,3735,-272,-714,-311
-853,-1470,3888,-277,-751,-256
-791,-1357,3992,-176,-771,-191
-704,-1324,4006,-70,-772,-154
-621,-1465,4118,-35,-777,-100
-572,-1466,4171,-17,-771,-19
-553,-1481,4259,-13,-747,52
-520,-1377,4359,145,-757,92
-440,-1010,4432,261,-752,130
-292,-821,4538,274,-735,138
-179,-1047,4617,238,-713,155
-173,-1129,4582,221,-691,223
-225,-1139,4464,229,-670,285
-201,-1266,4338,294,-666,308
-133,-1399,4287,387,-674,336
-72,-1515,4251,459,-678,391
-23,-1617,4192,550,-679,451
14,-1610,4190,669,-679,513
75,-1049,4284,798,-668,557
190,-393,4413,934,-642,516
377,-419,4518,1032,-604,426
443,-709,4412,1053,-559,444
437,-458,4487,996,-513,570
343,-257,4093,1002,-482,649
363,-60,4050,996,-562,684
412,-142,4273,933,-606,695
414,-92,4294,904,-580,731
419,48,4248,923,-570,753
454,211,4294,944,-574,747
495,163,4393,1005,-566,718
485,373,4165,1037,-540,744
556,630,4178,973,-560,751
615,556,4486,944,-576,727
647,505,4367,963,-519,740
613,329,4143,981,-487,768
615,357,4087,977,-501,831
606,548,4293,1057,-498,858
594,826,4088,1188,-465,848
633,739,4061,1226,-490,831
602,975,4049,1206,-525,888
670,1897,4253,1125,-556,925
735,2069,4399,1100,-549,793
791,1783,4339,1073,-519,655
814,1678,4420,1016,-495,608
774,1805,4296,1004,-470,603
747,1762,4101,948,-470,614
717,1564,3981,867,-504,655
640,1584,3767,808,-547,715
648,1815,3781,796,-610,735
691,1871,3784,862,-662,686
752,1964,3824,894,-702,652
876,2321,3883,914,-718,619
981,2723,3989,932,-729,529
1027,2894,3965,904,-706,396
1050,2917,3867,829,-685,284
1051,2683,3771,747,-697,203
1033,2604,3752,689,-715,180
1028,3029,3635,626,-751,166
1064,3157,3764,555,-822,73
1142,3194,3922,483,-851,-27
1218,3119,3898,471,-854,-131
1268,3137,3890,460,-857,-229
1328,3344,3947,403,-856,-312
1413,3386,4108,347,-844,-417
1449,3196,4079,333,-808,-525
1431,2978,3885,236,-777,-564
1375,2848,3834,69,-776,-548
1304,2828,3765,-73,-783,-530
1304,2828,3765,-73,-783,-530
1263,2768,3725,-183,-807,-530
1242,2720,3772,-260,-842,-544
1262,2853,3763,-307,-859,-582
1323,2790,3754,-352,-903,-653
1423,2438,3947,-439,-930,-712
1514,2121,4083,-470,-900,-730
1572,2243,4004,-471,-864,-716
1661,2292,4102,-491,-843,-749
1798,2235,4258,-479,-798,-826
1925,2013,4386,-428,-734,-913
1973,1902,4393,-386,-666,-956
1954,1768,4400,-420,-597,-953
1916,1666,4382,-472,-544,-927
1909,1517,4418,-530,-504,-897
1997,1282,4570,-599,-459,-858
2076,1159,4721,-656,-392,-800
2078,1248,4820,-689,-309,-752
2018,1340,4845,-712,-219,-748
1946,1085,4818,-679,-139,-792
1918,706,4736,-648,-65,-801
1869,570,4796,-632,-16,-754
1843,715,4715,-589,34,-702
1882,545,4775,-574,66,-688
1921,200,4911,-530,115,-648
1893,336,4924,-494,190,-546
1833,500,4944,-454,265,-469
1827,584,4668,-468,327,-435
1771,118,5028,-473,336,-422
1745,127,4948,-354,439,-325
1670,237,4622,-270,503,-266
1615,185,4735,-246,510,-235
1553,296,4744,-167,546,-204
1493,604,4681,-120,583,-190
1489,742,4752,-101,609,-216
1486,622,4828,-84,643,-237
1474,464,4883,-68,699,-212
1396,510,4814,-41,766,-145
1255,634,4666,-24,816,-89
1147,617,4605,-14,838,-55
1054,814,4493,7,853,-17
976,962,4418,40,846,-25
989,781,4410,66,830,-55
1035,630,4464,73,826,-37
1042,901,4525,86,837,17
1052,1148,4529,96,861,33
1063,1013,4500,75,889,33
1033,804,4421,36,917,79
1011,687,4349,8,940,164
958,785,4337,0,964,240
837,1152,4196,52,998,272
765,1323,4008,125,1011,223
739,1267,3977,158,988,154
704,1151,3960,176,971,117
633,1145,3834,199,954,110
598,1049,3778,209,925,105
603,1030,3841,228,894,115
628,1176,3903,267,882,129
655,1227,3913,280,887,135
643,1323,3974,249,902,157
547,1301,3877,230,928,171
435,1256,3710,230,931,201
363,1395,3690,233,903,235
334,1704,3732,254,877,227
368,1654,3765,305,861,160
343,1518,3721,346,858,119
305,1647,3663,328,851,132
284,1652,3583,292,820,129
308,1770,3627,249,769,145
323,1627,4050,256,751,143
323,1627,4050,256,751,143
351,1636,3675,377,825,194
344,2035,3576,316,793,239
249,2150,3674,174,774,212
180,2064,3716,119,786,160
129,1998,3638,132,813,118
42,2053,3487,155,819,77
-20,1970,3472,160,802,28
-71,1820,3435,149,793,10
-171,1710,3357,121,782,23
-274,1683,3243,111,762,39
-303,1685,3249,84,730,54
-341,1700,3263,60,702,67
-382,1656,3228,44,682,74
-416,1666,3300,12,655,94
-456,1800,3327,-2,636,115
-441,1801,3342,0,621,105
-359,1786,3547,-6,612,93
-289,1869,3654,-31,639,96
-313,1919,3676,-75,682,101
-381,1858,3626,-104,718,97
-474,1730,3586,-142,740,106


-159,1617,3799,-44,1159,210
-351,1692,3580,-72,1068,243
-390,1775,3668,-85,1034,214
-390,1775,3668,-85,1034,214
-405,1725,3675,-43,1015,155
-409,1711,3692,-34,1014,126
-440,1807,3597,9,1001,112
-515,1719,3406,20,963,100
-513,1684,3508,-38,910,120
-504,1771,3551,-76,883,132
-512,1879,3570,-71,872,116
-576,1956,3490,-56,857,86
-625,1911,3499,-112,835,64
-671,1770,3521,-171,821,54
-751,1816,3405,-236,815,72
-785,1981,3388,-312,792,79
-769,1939,3420,-371,762,49
-724,1859,3535,-404,741,23
-700,2210,3638,-402,743,3
-694,2388,3671,-393,753,-65
-718,2228,3685,-383,761,-152
-793,2225,3572,-383,762,-183
-879,2378,3491,-380,741,-202
-948,2397,3399,-376,705,-256
-940,2251,3415,-419,664,-308
-974,1930,3315,-486,635,-318
-1065,1863,3248,-593,594,-261
-1109,2148,3303,-704,558,-221
-1156,2449,3286,-785,539,-256
-1212,2300,3210,-841,525,-358
-1314,1949,3068,-879,505,-443
-1430,1875,2940,-901,467,-476
-1518,2032,2847,-921,414,-512
-1585,2147,2859,-970,348,-582
-1617,1966,2749,-941,286,-689
-1640,1500,2587,-957,203,-760
-1592,1273,2798,-1069,99,-724
-1608,1576,2972,-1126,36,-674
-1685,2174,2909,-1143,-6,-717
-1679,1805,2738,-1194,-76,-874
-1695,526,2774,-1243,-172,-969
-1809,63,2771,-1212,-250,-878
-1838,534,2683,-1119,-331,-771
-1826,746,2494,-1030,-448,-818
-1603,10,2611,-988,-590,-892
-1345,-635,2964,-974,-702,-823
-1266,-308,3051,-967,-745,-647
-1219,177,3165,-930,-781,-571
-1147,180,3332,-825,-802,-636
-1019,-218,3418,-712,-800,-699
-947,-413,3546,-671,-797,-663
-906,-156,3751,-642,-796,-595
-959,-146,3711,-636,-786,-581
-997,-699,3704,-695,-804,-576
-962,-1091,3894,-697,-844,-505
-901,-942,4046,-650,-861,-386
-847,-892,3985,-585,-861,-320
-776,-1258,4084,-532,-873,-276
-761,-1486,4054,-451,-866,-176
-728,-1380,4010,-393,-877,-59
-704,-1281,4158,-339,-892,7
-615,-1391,4149,-222,-895,35
-493,-1694,4241,-149,-898,88
-413,-1666,4350,-72,-884,186
-377,-1273,4346,29,-858,258
-296,-1211,4423,129,-838,261
-199,-1541,4443,217,-807,256
-173,-1629,4439,327,-792,317
-118,-1548,4465,447,-776,404
-60,-1659,4479,551,-752,471
20,-1544,4532,654,-741,560
54,-1434,4526,750,-716,652
54,-1434,4526,750,-716,652
81,-1072,4443,841,-697,735
101,-912,4392,911,-678,768
136,-722,4352,990,-661,789
189,-304,4475,1060,-620,778
267,-121,4303,1183,-596,724
376,-305,4356,1205,-619,714
426,-460,4407,1165,-615,801
376,276,4393,1144,-594,929
391,879,4317,1129,-566,922
430,542,4295,1126,-547,832
424,520,4178,1111,-525,841
370,804,4078,1107,-524,878
370,1266,3922,1033,-544,885
474,1194,4373,997,-586,820
489,1138,4196,1072,-531,771
519,1095,4211,1112,-511,748
559,1103,4198,1143,-493,767
511,1478,4143,1170,-470,799
473,1878,3764,1152,-474,792
506,1495,3854,1005,-540,762
465,1622,3878,917,-586,804
511,2174,3949,859,-624,803
625,1987,4034,842,-646,702
729,1621,4024,868,-646,652
730,1567,3859,911,-647,681
774,1734,3857,939,-671,719
775,1814,3896,1019,-684,713
753,2123,3818,1127,-684,702
739,3147,3802,1123,-698,673
850,4081,4015,1013,-718,515
1012,3739,4027,820,-711,284
1021,2831,4023,551,-698,190
854,2396,3718,406,-687,246
699,2444,3341,352,-723,320
641,2527,3180,328,-818,347
740,2447,3286,343,-923,336
870,2652,3412,362,-996,334
1019,3253,3703,338,-1041,300
1162,4249,4056,303,-1026,133
1284,4467,4132,217,-954,-192
1357,3380,4141,127,-860,-522
1253,2641,3835,105,-814,-636
1102,2698,3758,47,-822,-608
1027,2743,3614,-13,-862,-574
1058,2507,3655,-98,-948,-534
1095,2347,3683,-179,-1028,-464
1176,2339,3736,-228,-1102,-404
1388,2513,3961,-274,-1154,-384
1655,2921,4316,-347,-1149,-424
1906,2903,4565,-418,-1076,-552
2108,2305,4747,-501,-960,-676
2184,1685,4887,-561,-815,-708
2105,1522,4769,-567,-678,-658
1967,1615,4773,-554,-583,-620
1848,1635,4500,-546,-500,-630
1879,1412,4590,-580,-486,-672
1962,1175,4832,-560,-459,-708
2033,1000,5012,-516,-401,-704
2086,1041,5027,-466,-321,-686
2126,931,5084,-463,-241,-685
2149,766,5121,-473,-152,-670
2113,586,5166,-465,-68,-642
2067,514,5252,-450,21,-583
1935,638,5073,-400,118,-530
1788,542,4957,-372,165,-533
1767,232,5102,-322,210,-517
1734,284,5009,-262,278,-456
1680,687,5079,-226,317,-421
1659,655,5043,-185,376,-447
1634,404,5035,-172,431,-452
1634,404,5035,-172,431,-452
1650,278,5037,-148,488,-394
1617,318,5027,-135,557,-309
1512,540,5031,-99,627,-224
1428,898,4747,-47,689,-181
1359,761,4798,-2,698,-211
1337,1001,4838,91,737,-207
1305,1026,4613,135,783,-225
1312,809,4597,65,791,-207
1292,721,4627,2,806,-140
1241,852,4553,-20,839,-70
1167,1144,4529,-31,873,-36
1109,1246,4473,-16,909,-59
1112,943,4356,-1,940,-88
1097,816,4355,4,964,-46
985,1097,4212,28,991,22
854,1244,4017,44,992,40
777,1128,3903,69,967,25
751,1087,3842,97,936,24
749,1201,3829,123,912,27
764,1283,3831,149,900,11
751,1235,3773,163,896,0
702,1215,3708,166,890,12
637,1356,3513,191,878,30
568,1433,3391,136,854,47
508,1385,3393,105,814,55
447,1452,3295,123,774,63
460,1526,3349,118,731,66
483,1592,3450,108,699,71
476,1709,3364,105,693,77
446,1811,3294,19,679,78
448,1722,3417,-11,659,48
394,1668,3348,4,663,23
321,1735,3232,15,656,8
274,1769,3137,6,627,-26
268,1641,3204,-50,587,-51
292,1627,3351,-101,553,-39
275,1754,3352,-174,545,-7
259,1710,3363,-289,537,25
213,1588,3343,-399,524,69
126,1558,3281,-489,508,113
41,1535,3233,-555,480,138
-2,1351,3229,-648,443,160
-50,1267,3307,-777,397,213
-90,1427,3437,-863,350,259
-164,1432,3566,-856,316,238
-214,1283,3565,-772,298,187
-239,1232,3619,-699,272,154
-255,1172,3789,-611,248,123
-222,1125,3904,-446,251,85
-202,1248,3917,-314,275,66
-165,1449,3892,-233,284,39
-55,1403,4107,-220,282,4
3,1389,4103,-228,298,-15
-30,1227,4167,-211,277,-18
-96,1217,4088,-153,270,-1
-220,1215,4027,-84,230,-11


409,949,4846,315,452,82
404,1028,4830,302,485,100
386,1235,4801,282,523,112
361,1343,4783,250,560,101
359,1304,4710,231,592,83
279,1176,4577,221,613,74
211,1158,4483,180,615,101
182,1166,4538,172,610,121
174,1257,4414,189,638,135
149,1251,4339,190,655,116
156,1237,4330,196,667,107
156,1270,4273,193,692,114
143,1526,4310,154,717,127
76,1826,4261,158,744,88
-5,1913,4185,210,770,-9
-78,1751,4105,219,787,-89
-127,1612,4028,172,789,-101
-174,1561,3935,101,779,-62
-206,1601,3893,13,760,2
-270,1853,3867,-58,744,54
-336,2201,3807,-105,739,46
-378,2273,3788,-126,733,-35
-362,2158,3793,-146,727,-115
-351,2101,3774,-189,726,-149
-354,2182,3751,-246,727,-155
-368,2356,3720,-315,732,-166
-383,2371,3619,-384,734,-202
-419,2156,3476,-451,726,-237
-461,1968,3351,-547,701,-223
-471,2016,3301,-658,662,-174
-466,2091,3255,-722,625,-157
-469,2075,3321,-779,600,-175
-546,1976,3199,-752,595,-228
-648,2013,3104,-799,583,-260
-648,2013,3104,-799,583,-260
-680,2158,3200,-875,569,-302
-725,2009,3117,-873,564,-390
-820,1754,2915,-903,554,-448
-872,1409,2911,-943,514,-460
-1004,1169,2782,-944,474,-438
-1132,1214,2701,-982,421,-381
-1200,1268,2728,-991,349,-372
-1278,1148,2676,-986,286,-411
-1313,1085,2828,-981,216,-449
-1355,1146,2841,-915,167,-512
-1374,792,2730,-847,117,-601
-1423,452,2728,-808,48,-632
-1416,720,2800,-791,-22,-604
-1366,681,2720,-789,-89,-636
-1364,182,2750,-858,-190,-648
-1307,-125,2819,-895,-306,-584
-1251,-305,2926,-946,-407,-487
-1201,-488,3189,-933,-495,-415
-1149,-572,3254,-842,-552,-377
-1010,-603,3392,-830,-592,-339
-924,-481,3708,-840,-607,-314
-868,-406,3697,-776,-575,-328
-965,-935,3567,-720,-570,-390
-1084,-1374,3539,-654,-596,-350
-1110,-1356,3469,-564,-634,-251
-1187,-1234,3387,-510,-692,-191
-1141,-1092,3536,-475,-768,-158
-1026,-1110,3597,-342,-840,-176
-905,-1211,3566,-297,-899,-157
-764,-1424,3821,-354,-969,-92
-610,-1751,4028,-368,-985,-4
-514,-1838,4238,-248,-979,92
-441,-1449,4292,-50,-955,168
-380,-1427,4208,74,-913,190
-353,-1541,4138,150,-902,217
-301,-1474,4299,238,-915,259
-206,-1185,4361,347,-889,290
-1,-990,4470,461,-884,277
132,-1054,4664,547,-872,276
279,-1009,4693,570,-845,357
352,-1147,4728,558,-814,452
327,-1168,4626,570,-783,575
334,-1098,4617,637,-742,668
331,-1204,4283,782,-716,727
388,-937,4268,881,-763,803
430,-711,4251,940,-763,842
510,-532,4175,1006,-751,864
632,-196,4376,1077,-762,869
759,479,4657,1156,-713,828
866,949,4788,1222,-620,719
953,1069,4883,1277,-537,620
991,928,4768,1293,-456,592
967,823,4453,1192,-417,664
889,917,4438,1015,-435,788
771,1031,4362,932,-432,865
668,1145,4102,923,-447,885
647,1066,4128,949,-481,852
595,1224,4202,1050,-491,823
610,2051,4311,1166,-472,770
654,2448,4167,1180,-430,623
784,2075,4127,1039,-426,502
748,1704,4152,864,-425,491
635,1762,3953,804,-418,525
611,1976,3844,756,-447,534
682,2131,3909,720,-489,496
772,2001,4009,696,-518,446
829,1842,4019,721,-533,439
844,1965,3932,738,-542,459
844,1965,3932,738,-542,459
884,2305,4052,719,-550,455
911,2761,3957,716,-559,385
964,3022,4070,611,-571,263
999,2736,4126,502,-563,134
964,2349,3976,447,-547,70
879,2277,3845,375,-550,76
811,2395,3817,334,-583,85
809,2413,3819,327,-608,69
778,2425,3841,348,-649,51
752,2531,3889,361,-686,29
787,2819,4084,350,-730,-10
835,3265,4305,331,-735,-104
1005,3713,4368,270,-721,-258
1154,3649,4653,105,-721,-451
1165,2978,4663,-4,-665,-595
1103,2666,4499,-112,-612,-610
1016,2600,4434,-184,-608,-600
1007,2565,4437,-209,-612,-612
1036,2560,4367,-243,-627,-631
1150,2345,4372,-312,-667,-653
1269,2054,4404,-411,-694,-645
1335,2015,4413,-506,-705,-608
1427,1899,4489,-559,-704,-611
1521,1604,4574,-588,-665,-642
1585,1411,4654,-595,-595,-669
1597,1426,4742,-562,-505,-716
1579,1436,4745,-524,-407,-791
1512,1229,4726,-489,-324,-876
1487,892,4681,-446,-256,-928
1444,567,4593,-412,-212,-925
1440,485,4611,-379,-195,-861
1508,484,4661,-362,-172,-797
1583,461,4796,-359,-139,-748
1618,483,4892,-332,-76,-718
1608,589,4942,-281,4,-711
1574,599,4939,-205,76,-726
1570,432,4865,-157,133,-719
1541,348,4886,-155,169,-655
1500,504,4904,-144,201,-577
1459,599,4900,-128,234,-537
1422,587,4910,-120,269,-510
1379,587,4875,-98,303,-480
1371,410,4805,-69,330,-449
1404,83,4833,-78,358,-370
1387,110,4859,-93,395,-231
1309,325,4807,-78,443,-122
1200,526,4739,-36,489,-80
1153,737,4630,19,537,-87
1158,929,4553,18,535,-136
1139,520,4775,-9,556,-197
1146,323,4679,30,618,-151
1077,432,4492,43,650,-66
1014,609,4473,28,652,-9
969,637,4474,30,665,0
960,571,4413,57,685,9
950,622,4399,68,702,38
929,750,4312,75,718,68
948,672,4301,48,720,92
937,684,4383,21,728,136
878,887,4284,52,757,162
830,881,4181,76,770,143
791,877,4214,98,777,135
717,1103,4125,155,786,139
654,1200,4037,170,775,116
676,824,4153,174,765,109
733,701,3918,175,770,206
716,946,4023,95,748,307
629,1325,4095,85,777,341
629,1325,4095,85,777,341
552,1676,3666,103,809,282
508,1341,3855,32,777,173
524,1119,3816,31,797,168
478,1307,3687,22,793,222
373,1489,3640,22,770,240
315,1519,3532,63,742,213
334,1522,3560,55,716,184
315,1561,3516,24,699,173
254,1620,3458,-17,676,174
192,1569,3461,-73,649,177
114,1476,3371,-127,621,201
54,1472,3365,-180,582,232
-10,1573,3361,-192,550,236
-115,1720,3357,-164,522,199
-186,1723,3298,-100,489,125
-209,1483,3267,-69,444,62
-212,1275,3301,-83,393,65
-247,1332,3341,-109,346,108
-267,1421,3369,-110,304,128
-300,1471,3401,-97,270,114
-308,1574,3409,-78,240,78
-276,1474,3442,-69,199,29
-209,1316,3557,-97,151,29
-154,1354,3713,-133,111,73
-132,1359,3800,-162,88,106
-155,1365,3828,-183,73,125
-179,1474,3830,-187,53,126


334,1440,4443,242,679,244
371,1317,4448,208,718,234
337,1377,4430,132,763,281
245,1583,4376,89,796,321
134,1736,4230,93,828,306
134,1736,4230,93,828,306
50,1833,4057,124,835,255
0,1811,4004,159,815,178
-17,1658,3943,157,798,126
-70,1583,3795,137,770,123
-122,1550,3769,90,723,140
-123,1681,3823,63,686,155
-18,1727,3830,60,676,138
95,1608,3904,15,677,134
116,1709,3972,-77,699,175
87,1821,4007,-134,733,192
30,1940,3990,-178,782,189
-46,2062,3908,-186,821,161
-144,2111,3871,-151,844,92
-229,2145,3751,-123,873,14
-327,2307,3633,-126,876,-41
-405,2412,3595,-125,848,-115
-448,2444,3629,-165,820,-177
-459,2505,3638,-247,800,-204
-488,2437,3552,-343,784,-215
-541,2290,3460,-479,766,-194
-593,2218,3430,-618,745,-153
-661,2164,3341,-732,736,-118
-797,2112,3205,-849,724,-93
-965,2054,3086,-902,694,-97
-1110,2034,2928,-909,648,-133
-1209,1966,2815,-905,582,-207
-1210,2006,2895,-921,509,-289
-1156,2194,3030,-949,461,-388
-1118,2133,3028,-971,437,-514
-1139,1536,2897,-993,409,-618
-1240,965,2690,-1058,360,-598
-1388,917,2577,-1121,278,-494
-1494,1066,2534,-1144,182,-429
-1552,1104,2432,-1166,83,-428
-1623,965,2371,-1184,-27,-462
-1653,632,2308,-1153,-147,-520
-1655,370,2371,-1117,-267,-558
-1657,250,2498,-1012,-365,-593
-1577,332,2588,-917,-449,-613
-1395,340,2780,-855,-533,-647
-1216,-73,2926,-834,-603,-671
-1071,-502,3027,-862,-662,-601
-994,-625,3252,-923,-715,-466
-998,-474,3350,-903,-749,-368
-982,-289,3367,-845,-787,-342
-872,-573,3492,-790,-836,-370
-778,-1083,3616,-716,-879,-362
-733,-1277,3595,-601,-908,-290
-610,-1345,3672,-550,-939,-203
-548,-1448,3756,-497,-960,-130
-482,-1419,3843,-432,-965,-69
-408,-1566,3930,-369,-955,-37
-333,-1703,4079,-198,-960,-25
-244,-1730,4162,-39,-948,8
-122,-1858,4265,58,-931,78
-68,-1781,4309,169,-920,188
-67,-1481,4300,252,-906,285
-29,-1181,4369,354,-894,309
74,-1149,4342,483,-879,282
170,-1306,4349,544,-874,297
270,-1355,4428,575,-874,381
341,-1334,4448,621,-864,481
396,-1220,4490,716,-852,558
504,-966,4719,837,-828,603
494,-838,4556,1012,-747,601
584,-486,4558,1198,-741,615
695,6,4660,1266,-713,618
792,426,4682,1225,-672,619
792,426,4682,1225,-672,619
890,414,4737,1100,-629,639
878,224,4635,975,-591,696
786,147,4481,899,-588,776
664,228,4454,907,-579,825
604,203,4265,1053,-559,813
719,169,4252,1200,-567,826
815,180,4172,1313,-561,872
818,448,4329,1385,-551,945
791,1186,4288,1515,-515,971
842,2111,4359,1585,-497,892
929,2564,4405,1542,-468,721
1017,2543,4326,1364,-457,583
1056,1783,4325,1129,-464,533
983,1278,4187,926,-462,652
866,1497,4052,832,-471,815
706,1648,3865,875,-485,860
647,1485,3674,1023,-528,844
660,1620,3541,1165,-589,861
707,2555,3705,1210,-653,890
727,3810,3674,1168,-681,780
920,4115,3924,1030,-711,500
1092,3393,4075,956,-706,215
1207,3000,4069,824,-674,117
1230,2992,4197,672,-642,121
1093,3175,4035,595,-599,128
962,3389,3859,544,-592,90
884,3452,3756,509,-620,11
854,3624,3805,452,-663,-73
859,3812,3815,372,-694,-180
871,3724,3820,271,-730,-304
912,3673,3946,156,-763,-400
967,3438,3996,80,-769,-496
993,3018,4000,5,-770,-557
963,2865,3908,-54,-775,-560
940,2760,3777,-81,-796,-564
942,2634,3620,-128,-858,-566
1049,2549,3825,-190,-940,-568
1210,2356,3913,-197,-974,-592
1443,2361,4111,-236,-992,-605
1722,2243,4450,-293,-959,-643
1910,2100,4618,-294,-867,-680
2007,2050,4658,-306,-752,-714
2060,2052,4729,-338,-639,-751
2049,1885,4731,-360,-525,-810
1993,1581,4674,-368,-425,-848
1902,1413,4611,-375,-353,-843
1785,1264,4498,-393,-309,-825
1739,948,4462,-420,-296,-781
1786,733,4567,-456,-293,-695
1814,865,4767,-482,-272,-602
1839,1013,4884,-466,-214,-569
1913,927,4962,-417,-139,-581
1943,746,5030,-371,-47,-591
1909,697,5034,-305,49,-574
1831,822,4940,-251,134,-542
1768,674,4880,-241,197,-514
1714,543,4768,-252,238,-455
1615,539,4818,-278,262,-404
1590,554,4946,-202,303,-366
1626,713,4906,-111,367,-334
1639,747,4903,-94,418,-319
1641,551,4911,-122,471,-282
1549,532,4893,-155,527,-199
1431,854,4808,-142,581,-132
1396,1088,4742,-111,623,-138
1436,1041,4753,-88,664,-173
1454,998,4759,-87,713,-169
1423,1019,4675,-91,765,-137
1349,1101,4616,-106,809,-96
1349,1101,4616,-106,809,-96
1237,1251,4547,-85,850,-83
1135,1351,4447,-36,886,-110
1090,1338,4341,-13,913,-146
1078,1142,4314,-30,930,-156
1014,1061,4226,-67,947,-107
935,1086,4125,-99,951,-39
883,1196,4089,-122,950,11
850,1236,4046,-116,960,21
811,1419,4055,-97,974,18
780,1483,3959,-67,988,-13
743,1360,3933,-60,989,-37
678,1492,3868,-44,994,-24
589,1531,3730,-44,990,-20
514,1368,3661,-73,967,-17
465,1283,3620,-77,939,5
386,1399,3511,-70,911,35
320,1450,3402,-71,873,42
331,1346,3384,-85,826,40
370,1318,3410,-115,792,63
383,1323,3415,-149,778,100
337,1349,3410,-194,776,144
267,1554,3413,-222,776,173
192,1845,3353,-219,779,155
76,1796,3148,-187,771,82
-31,1511,3014,-185,726,26
-88,1379,2977,-217,659,35
-152,1458,2992,-261,583,75
-197,1555,3033,-298,515,98
-208,1471,3088,-327,457,93
-253,1447,3121,-332,415,89
-302,1365,3164,-321,375,92
-322,1411,3032,-336,335,104
-342,1466,3083,-373,235,113
-315,1335,3600,-385,173,104
-328,1108,3374,-234,215,139
-262,1590,2949,-268,141,218
-276,1442,3234,-512,2,196
-249,1384,3603,-643,-79,204
-219,1483,3979,-606,-105,198
-190,1471,3994,-443,-79,144
-165,1439,4090,-295,-49,69
-187,1264,4016,-163,-3,2
-211,1189,3940,-77,24,-26
-183,1304,4085,-1,30,-46
-108,1396,4164,55,59,-82
-26,1380,4171,115,71,-114
-37,1287,4005,59,57,-107
-46,1226,4031,-107,23,-34
-34,1338,4089,-189,-23,19
9,1343,4247,-246,-58,46
-34,1219,4210,-234,-75,58
-42,1309,4310,-212,-108,80
-52,1340,4387,-131,-125,61
-45,1135,4184,-38,-116,13
-39,1099,4244,-128,-106,33


915,1282,4774,6,722,540
888,1402,4731,5,760,522
887,1402,4677,-8,797,500
863,1306,4576,-66,824,518
791,1221,4546,-108,821,573
692,1177,4500,-109,818,628
635,1332,4474,-107,829,676
572,1716,4458,-79,849,666
536,1878,4380,-26,877,566
555,1698,4358,-25,908,452
533,1731,4400,-49,944,394
451,1926,4262,-49,995,332
343,1845,4062,-69,1031,241
205,1652,3902,-113,1029,180
97,1563,3807,-194,1004,188
-26,1707,3719,-303,970,231
-125,1890,3711,-377,925,236
-187,1882,3675,-394,882,187
-233,1768,3594,-387,836,136
-262,1709,3550,-384,786,103
-266,1712,3490,-402,745,84
-221,1720,3553,-440,703,63
-192,1773,3629,-466,685,36
-224,1796,3587,-487,687,3
-302,1747,3508,-544,684,-21
-410,1800,3488,-609,668,-39
-476,1980,3482,-645,649,-74
-496,1993,3455,-655,631,-151
-521,1885,3399,-692,606,-222
-561,1783,3392,-767,569,-249
-637,1724,3354,-850,527,-251
-715,1515,3220,-896,478,-266
-799,1215,3113,-943,421,-275
-867,1152,3080,-982,351,-267
-878,1222,3151,-994,277,-280
-846,1281,3202,-997,217,-326
-838,997,3125,-1005,174,-399
-860,562,3044,-994,121,-439
-920,423,2964,-975,54,-423
-1010,455,2866,-964,-18,-414
-1053,73,2723,-908,-104,-456
-1074,-156,2724,-808,-214,-475
-1015,159,2851,-691,-312,-491
-903,278,2947,-589,-386,-578
-829,142,3133,-531,-442,-668
-777,68,3139,-443,-482,-722
-777,68,3139,-443,-482,-722
-681,-528,2957,-480,-538,-711
-571,-724,3140,-658,-638,-566
-660,-687,3112,-783,-727,-411
-713,-667,3129,-881,-820,-329
-681,-969,3271,-839,-908,-349
-606,-1233,3309,-673,-964,-392
-459,-1384,3541,-486,-1013,-396
-298,-1145,3622,-323,-1035,-357
-55,-1171,3840,-230,-1049,-320
192,-1711,4186,-193,-1025,-274
265,-1798,4403,-156,-942,-139
173,-1096,4377,-59,-843,-7
86,-844,4131,61,-779,-3
109,-1025,4102,119,-785,-3
235,-892,4218,155,-827,73
344,-966,4308,158,-853,141
457,-1222,4436,197,-872,190
570,-1373,4665,300,-857,247
671,-1529,4527,455,-807,332
761,-1682,4500,548,-787,450
756,-1343,4517,627,-754,582
745,-733,4509,737,-704,631
844,-562,4584,833,-650,589
965,-449,4748,920,-594,563
982,-161,4820,974,-527,576
1017,-107,4755,1014,-473,589
1043,-351,4797,1053,-435,629
1020,-488,4684,1149,-390,720
938,-317,4558,1276,-349,817
832,52,4341,1415,-322,862
842,99,4164,1511,-325,865
958,103,4295,1585,-334,878
980,997,4578,1647,-299,909
975,2089,4469,1671,-224,847
1021,1773,4361,1610,-200,696
957,1136,4261,1511,-209,681
774,1369,4020,1406,-221,800
621,2035,3869,1262,-265,869
631,2488,4034,1152,-330,789
806,2539,4304,1120,-364,616
982,2353,4400,1097,-341,464
1039,2139,4296,1056,-306,382
1040,1938,4116,992,-291,363
1036,1759,4007,902,-294,398
1015,1819,3996,834,-302,445
1025,1804,3964,826,-299,459
1017,1862,4009,845,-294,457
929,2385,3972,869,-273,437
895,3066,3892,859,-267,345
958,3163,3846,746,-284,175
1013,2473,3806,632,-305,24
1037,2083,3807,557,-319,3
952,2396,3740,517,-327,45
920,2595,3684,499,-349,31
922,2497,3618,496,-378,-15
915,2206,3644,470,-432,-28
896,2390,3619,453,-473,4
881,3122,3717,386,-498,-14
930,3374,3612,339,-531,-151
1019,3079,3796,219,-568,-305
1012,2865,3809,129,-567,-377
932,2802,3629,70,-577,-410
875,2658,3586,-18,-611,-434
854,2616,3660,-102,-657,-440
906,2568,3731,-162,-695,-450
986,2450,3788,-211,-717,-460
1006,2459,3733,-283,-735,-460
1003,2452,3717,-378,-767,-471
1003,2452,3717,-378,-767,-471
1072,2331,3822,-462,-801,-501
1161,2216,3895,-506,-816,-529
1221,2084,3952,-552,-820,-538
1285,1909,3972,-587,-826,-534
1367,1630,4024,-622,-837,-507
1435,1547,4109,-653,-839,-456
1510,1746,4229,-673,-826,-428
1652,1756,4343,-675,-804,-463
1794,1475,4568,-683,-752,-516
1837,1306,4549,-663,-666,-543
1873,1165,4595,-667,-589,-551
1887,1023,4647,-656,-518,-549
1883,1023,4656,-637,-451,-539
1870,955,4667,-625,-396,-539
1944,604,4704,-609,-356,-536
2021,330,4878,-628,-313,-476
2009,370,5026,-588,-244,-394
1956,588,4970,-526,-159,-353
1928,642,4997,-472,-87,-378
1920,504,4997,-406,-19,-419
1929,254,4952,-366,39,-425
1936,83,4941,-347,91,-370
1909,186,5008,-341,134,-294
1846,480,5072,-257,187,-261
1834,585,4983,-191,250,-273
1867,286,5055,-176,305,-280
1807,145,4990,-145,369,-228
1730,295,4921,-107,419,-149
1689,533,4984,-77,455,-107
1671,670,5011,-50,506,-110
1683,539,5004,-34,569,-118
1688,667,5067,-39,632,-85
1566,857,4958,-35,703,-59
1461,885,4802,-49,754,-37
1438,788,4761,-51,781,-12
1399,957,4697,-49,810,33
1326,1172,4534,-36,836,45
1334,1069,4488,-46,846,26
1341,931,4480,-51,860,30
1329,844,4392,-71,882,66
1299,671,4317,-95,897,115
1253,686,4284,-98,924,182
1177,947,4066,-77,960,212
1131,930,4009,-67,971,179
1117,816,4045,-35,985,152
1103,794,3994,-25,1015,177
1039,1013,3686,-33,1042,231
865,1325,3626,-88,1001,251
716,1321,3552,-69,967,218
644,1127,3321,-45,916,162
627,978,3362,-60,831,138
633,1019,3404,-49,766,138
703,1127,3457,-31,718,124
793,1067,3615,-23,697,106
794,1240,3667,-30,708,126
734,1380,3546,-48,726,135
629,1421,3440,-71,727,130
537,1496,3348,-79,707,122
503,1501,3353,-96,674,106
477,1422,3334,-128,638,104
427,1509,3348,-136,599,117
344,1555,3291,-113,570,90
255,1444,3215,-101,535,42
264,1308,3240,-125,490,19
277,1305,3356,-153,452,27
214,1406,3297,-163,430,27
170,1327,3294,-172,394,2
171,1218,3292,-242,354,6
145,1223,3455,-325,311,27
145,1223,3455,-325,311,27
51,1280,3427,-331,271,28
38,1263,3381,-384,211,32
82,1260,3617,-438,137,29
73,1167,3578,-491,103,25
78,1109,3639,-589,55,52
38,1134,3620,-671,4,72
16,1160,3795,-776,-57,80
60,1189,4279,-744,-93,44
84,1151,4242,-590,-61,-17
80,1018,4198,-468,-41,-74
67,871,4244,-368,-34,-113
50,760,4231,-263,-25,-123
72,701,4266,-167,-22,-112
142,805,4310,-136,-15,-87


589,883,4597,264,473,140
478,970,4453,212,490,185
433,943,4462,199,481,203
400,1069,4433,236,475,206
406,1079,4373,231,476,199
422,1014,4414,227,481,193
431,1113,4376,233,491,208
453,1189,4348,222,503,209
454,1162,4376,204,519,206
485,1244,4386,176,539,224
485,1244,4386,176,539,224
501,1259,4370,135,562,233
510,1199,4427,95,582,240
486,1260,4459,125,621,242
441,1424,4395,151,661,246
371,1455,4332,196,694,220
299,1413,4223,231,716,203
294,1513,4201,213,723,222
275,1668,4262,195,732,238
212,1740,4219,208,757,226
158,1699,4173,217,797,196
145,1829,3961,211,833,186
142,1807,3909,91,835,194
152,1872,3961,-32,832,226
92,2092,4016,-140,843,252
-4,2422,3982,-179,878,236
-110,2585,3799,-179,910,164
-236,2466,3485,-178,903,72
-308,2239,3472,-201,854,18
-397,2224,3255,-234,816,20
-481,2303,3021,-353,756,46
-513,2249,3008,-480,667,35
-543,2118,3028,-581,595,19
-537,1955,2997,-658,543,10
-559,1855,2972,-730,503,1
-622,1932,2991,-772,479,-24
-713,2011,3025,-761,469,-103
-824,2237,3003,-721,462,-220
-864,2068,2917,-685,439,-373
-944,1588,2811,-697,395,-468
-1104,1397,2653,-762,325,-456
-1248,1360,2549,-824,214,-424
-1312,1348,2518,-884,88,-414
-1315,1224,2531,-937,-36,-440
-1270,1055,2639,-978,-157,-480
-1197,1129,2714,-1034,-255,-506
-1101,908,2820,-1086,-349,-555
-1044,501,2924,-1051,-431,-608
-1037,237,2922,-958,-491,-641
-976,234,2970,-853,-551,-662
-852,-34,3014,-752,-606,-692
-717,-304,3155,-706,-667,-669
-620,-213,3405,-721,-719,-593
-555,-168,3551,-694,-758,-549
-446,-282,3637,-649,-792,-536
-306,-532,3799,-653,-825,-506
-154,-801,3985,-610,-840,-439
-45,-824,4043,-558,-823,-347
-83,-1026,3922,-538,-801,-269
-130,-1116,3883,-523,-801,-192
-178,-1217,3927,-437,-813,-157
-199,-1434,3855,-299,-827,-127
-75,-1509,4022,-228,-856,-45
19,-1650,4196,-57,-877,10
64,-1728,4154,80,-866,84
161,-1497,4336,177,-864,167
225,-1035,4468,278,-848,221
332,-878,4552,377,-834,228
503,-940,4871,462,-817,235
636,-860,4966,538,-758,297
740,-781,5051,578,-704,370
756,-799,5091,645,-642,429
716,-766,4875,718,-574,495
698,-731,4769,771,-536,549
676,-737,4695,866,-510,576
721,-697,4728,999,-484,594
771,-853,4632,1156,-447,617
855,-730,4686,1251,-419,705
895,-236,4754,1345,-362,790
895,-236,4754,1345,-362,790
884,704,4784,1424,-299,821
922,1560,4827,1444,-240,741
1013,1464,4780,1376,-190,611
1026,815,4623,1265,-162,580
978,494,4509,1166,-158,690
940,517,4495,1157,-152,833
899,602,4296,1250,-131,933
866,771,4183,1385,-125,998
734,2293,4255,1478,-111,1024
690,4009,4051,1422,-82,849
881,3215,4082,1180,-102,509
928,1860,4157,928,-119,387
795,1876,3955,805,-114,467
683,2322,3780,708,-127,506
630,2256,3663,621,-161,459
618,2054,3612,560,-205,430
624,2035,3606,572,-248,428
685,2160,3554,577,-291,419
735,2131,3629,535,-339,403
801,2232,3756,511,-367,397
839,2596,3851,499,-365,366
840,2979,3815,477,-352,279
858,2777,3795,422,-348,155
830,2327,3771,372,-351,95
754,2242,3591,350,-356,109
703,2290,3444,318,-392,125
673,2121,3427,311,-446,111
640,1806,3382,353,-500,115
583,1702,3320,448,-564,153
531,2549,3465,515,-634,195
609,4098,3680,479,-680,109
855,4145,3869,350,-701,-185
1009,2844,3969,171,-690,-428
987,2274,3992,53,-664,-448
890,2335,3784,23,-648,-398
909,2609,3794,-42,-689,-370
932,2640,3915,-101,-722,-397
937,2581,3898,-142,-737,-427
943,2513,3828,-195,-780,-452
1003,2532,3933,-287,-835,-475
1097,2447,4127,-332,-860,-524
1191,2377,4131,-312,-859,-587
1346,2210,4202,-335,-848,-642
1505,1935,4370,-358,-824,-668
1581,1927,4440,-379,-774,-650
1667,1972,4532,-432,-721,-632
1746,1721,4669,-481,-651,-634
1740,1488,4626,-487,-572,-611
1687,1451,4543,-495,-504,-576
1639,1501,4498,-471,-460,-574
1682,1413,4557,-450,-428,-607
1712,1090,4585,-416,-387,-641
1725,1147,4532,-418,-353,-607
1729,1117,4562,-448,-327,-598
1762,991,4704,-473,-301,-584
1744,929,4650,-441,-250,-563
1750,711,4636,-423,-202,-556
1740,508,4685,-404,-155,-523
1717,524,4702,-350,-101,-469
1699,526,4665,-308,-41,-421
1676,692,4728,-283,9,-374
1673,779,4753,-248,67,-358
1660,626,4707,-231,133,-345
1617,524,4721,-211,190,-307
1538,686,4671,-160,249,-263
1489,846,4649,-125,302,-247
1482,775,4620,-102,346,-239
1491,671,4623,-95,380,-202
1460,814,4732,-82,417,-151
1460,814,4732,-82,417,-151
1432,1102,4746,-59,467,-122
1390,1208,4702,-53,511,-137
1384,950,4718,-61,550,-161
1364,644,4685,-41,599,-141
1298,647,4521,-20,640,-65
1261,884,4494,-8,657,-3
1303,1209,4657,0,679,13
1354,1404,4610,21,740,-15
1354,1389,4572,16,791,-58
1317,1264,4556,16,840,-74
1241,1230,4392,36,885,-51
1145,1228,4153,37,906,-23
1049,1296,4061,32,897,-6
906,1505,3926,70,880,-13
837,1456,3765,58,855,-44
863,1236,3841,6,810,-55
849,1214,3921,-4,798,-29
770,1353,3705,-5,810,-5
766,1261,3700,-55,799,0
812,1216,3819,-56,798,20
830,1417,3791,-53,824,66
761,1554,3718,-110,856,96
636,1552,3592,-151,875,104
454,1566,3291,-130,869,100
288,1423,3031,-107,816,83
239,1172,3013,-104,723,83
271,1233,3093,-94,638,116
306,1527,3228,-69,574,137
321,1570,3210,-54,537,123
354,1349,3298,-81,506,120
362,1282,3374,-87,498,149
309,1390,3363,-56,504,172
204,1620,3270,-47,514,168
102,1809,3236,-44,498,125
2,1654,3145,-15,465,55
-120,1481,3080,2,409,19
-169,1390,3091,-14,332,25
-134,1405,3267,-26,250,39
-84,1455,3380,15,193,38
-37,1434,3460,19,157,43
-21,1486,3595,46,130,41
-9,1573,3593,53,117,34
45,1701,3813,59,102,17
40,1808,3818,115,103,-24
59,1781,3841,146,94,-66
61,1641,3826,172,75,-90
71,1659,3798,130,49,-72
122,1666,3906,56,18,-50
124,1586,3951,10,13,-40
144,1599,3945,-5,9,-33


369,1407,4364,280,470,92
343,1463,4359,268,485,110
317,1523,4318,278,507,117
324,1506,4270,294,523,121
332,1394,4299,298,543,142
324,1413,4220,284,569,191
312,1455,4215,266,589,232
310,1505,4202,285,616,250
272,1618,4153,326,651,242
251,2010,4146,353,680,221
259,2250,4146,383,711,141
285,2158,4089,375,736,71
296,1941,4146,323,751,58
261,1922,4153,265,774,114
198,2076,4127,236,797,168
116,2250,4055,214,826,185
43,2357,3995,190,843,168
-28,2304,3887,143,852,145
-121,2198,3778,74,848,147
-202,2250,3756,-19,826,178
-260,2251,3777,-61,809,184
-352,2341,3735,-66,799,186
-417,2638,3652,-70,788,177
-441,2689,3597,-100,766,121
-455,2627,3609,-151,740,72
-463,2640,3619,-192,722,40
-486,2737,3553,-222,713,2
-491,2803,3479,-253,696,-52
-537,2846,3409,-288,669,-109
-565,2905,3376,-344,636,-149
-587,2962,3368,-419,602,-182
-620,2929,3303,-510,572,-208
-643,2850,3207,-624,539,-220
-653,2799,3150,-750,499,-216
-650,2827,3155,-846,463,-221
-674,2851,3066,-938,441,-245
-708,2622,2988,-1046,412,-283
-735,2376,3005,-1132,376,-299
-804,2402,2954,-1172,351,-297
-906,2426,2814,-1202,319,-322
-984,2385,2760,-1228,266,-367
-1052,2358,2694,-1233,206,-434
-1054,1958,2775,-1235,140,-518
-1041,1636,2838,-1224,89,-555
-1087,1586,2784,-1217,47,-549
-1147,1767,2789,-1199,-2,-563
-1196,1648,2629,-1189,-60,-628
-1181,1245,2725,-1201,-147,-676
-1211,997,2701,-1166,-219,-675
-1224,811,2607,-1154,-300,-635
-1221,573,2596,-1170,-402,-574
-1221,573,2596,-1170,-402,-574
-1195,495,2625,-1197,-508,-494
-1142,238,2644,-1193,-614,-457
-1059,79,2789,-1155,-713,-427
-912,-29,2897,-1061,-787,-419
-723,-252,3236,-988,-842,-413
-579,-217,3509,-947,-850,-365
-491,-60,3740,-922,-833,-331
-477,-73,3893,-874,-798,-341
-551,-84,3892,-816,-757,-361
-567,-219,3746,-757,-748,-376
-473,-756,3869,-763,-781,-347
-436,-1125,3986,-785,-801,-228
-472,-1151,3993,-803,-802,-82
-523,-1169,3889,-690,-811,-23
-503,-1052,3728,-644,-829,7
-319,-1452,4084,-542,-867,-19
-172,-1978,4099,-378,-840,-1
-76,-2065,4213,-330,-806,129
-146,-1997,4181,-236,-756,237
-177,-1982,4141,-45,-727,291
-104,-1711,3979,160,-727,311
34,-1823,4179,265,-758,310
205,-1955,4263,461,-763,366
312,-1640,4271,570,-753,474
358,-1152,4361,621,-730,534
432,-821,4474,694,-701,518
548,-734,4595,776,-667,491
652,-823,4597,822,-617,513
723,-842,4666,833,-567,596
644,-594,4555,881,-506,682
599,-388,4478,926,-466,727
619,-318,4501,1046,-438,733
651,-153,4519,1183,-373,745
638,86,4044,1307,-322,770
710,381,4091,1312,-385,785
782,505,4300,1295,-402,783
855,677,4230,1313,-374,795
972,915,4306,1329,-376,808
1044,1207,4461,1337,-355,806
1060,1433,4313,1366,-301,789
1097,1592,4228,1355,-279,779
1084,1809,4374,1300,-241,771
1028,2032,4185,1321,-197,734
1016,2096,4114,1284,-205,697
984,2078,4094,1194,-219,697
932,2363,4060,1085,-240,730
863,2516,4034,983,-261,716
808,2245,4034,938,-270,675
755,2180,3877,962,-272,665
735,2260,3762,953,-277,659
746,2500,3752,914,-289,637
753,2678,3717,893,-294,576
753,2623,3683,871,-305,504
749,2655,3690,845,-330,473
733,2683,3583,835,-353,452
790,2540,3542,802,-391,446
824,2671,3693,766,-423,462
806,3498,3607,722,-417,447
801,3688,3481,606,-432,323
836,3121,3575,478,-465,182
779,2879,3510,441,-472,119
692,3079,3309,425,-490,89
689,3014,3241,389,-541,31
749,2815,3246,373,-594,-10
773,2865,3213,353,-638,-19
758,3161,3199,294,-681,-32
833,3498,3346,189,-735,-66
966,3472,3512,74,-762,-144
966,3472,3512,74,-762,-144
1020,3235,3687,-33,-763,-228
942,3080,3616,-77,-743,-297
907,2944,3490,-83,-742,-369
921,2750,3330,-83,-789,-421
1028,2773,3525,-136,-867,-429
1138,2643,3577,-187,-900,-429
1267,2516,3677,-283,-943,-396
1374,2533,3890,-391,-960,-358
1427,2601,3924,-438,-939,-357
1523,2581,3975,-477,-911,-401
1595,2518,4090,-524,-878,-462
1677,2377,4174,-555,-829,-525
1708,2248,4217,-558,-781,-575
1698,2216,4109,-563,-738,-611
1744,1960,4104,-598,-723,-644
1839,1667,4282,-629,-714,-634
1932,1684,4389,-641,-680,-585
1963,1857,4405,-665,-621,-563
1938,1877,4382,-688,-561,-602
1943,1725,4285,-725,-517,-650
1984,1369,4516,-779,-493,-681
2006,1198,4593,-792,-425,-652
1991,1145,4580,-793,-345,-609
1951,1151,4600,-781,-282,-585
1887,1201,4570,-778,-222,-575
1856,1033,4553,-777,-177,-580
1837,756,4619,-732,-147,-581
1829,606,4607,-662,-94,-550
1828,512,4644,-622,-53,-502
1831,610,4769,-591,-7,-449
1825,736,4811,-535,47,-430
1863,681,4836,-498,99,-428
1923,425,5004,-473,160,-408
1875,425,4992,-424,245,-349
1734,681,4796,-399,316,-287
1728,826,4860,-381,347,-260
1710,678,4832,-278,384,-281
1776,533,4806,-251,422,-255
1859,374,4912,-234,462,-202
1882,443,4958,-188,529,-128
1854,608,4880,-166,615,-69
1836,659,4912,-140,692,-54
1768,616,4902,-96,778,-54
1668,648,4682,-58,873,-34
1540,895,4614,-98,910,-18
1395,800,4565,-123,958,-31
1311,703,4365,-99,991,-15
1231,774,4288,-111,987,24
1174,905,4319,-127,971,56
1123,958,4301,-127,968,71
1091,994,4298,-124,969,85
1045,1028,4292,-128,977,96
990,1010,4237,-128,991,110
954,1056,4197,-109,1000,123
836,1151,4079,-74,1007,124
728,1211,3869,-50,994,111
689,1033,3781,-61,945,96
685,801,3793,-70,894,117
693,888,3840,-61,861,167
658,1214,3838,-47,847,190
632,1363,3746,-36,836,164
643,1242,3706,-80,812,138
644,922,3961,-85,799,153
643,1003,3619,-5,832,231
613,1147,3575,-65,803,287
492,1398,3619,-126,789,307
354,1544,3457,-97,789,261
286,1375,3430,-40,765,179
230,1320,3336,21,735,132
230,1320,3336,21,735,132
191,1329,3386,29,680,117
231,1359,3463,36,646,133
262,1370,3506,28,618,157
204,1468,3484,1,606,177
124,1602,3402,-9,598,175
90,1595,3374,-5,571,136
109,1527,3414,-23,540,110
83,1480,3452,-41,512,113
-34,1520,3312,-50,486,126


440,1298,4597,395,337,141
418,1400,4605,425,367,98
428,1430,4578,414,398,77
462,1402,4628,376,420,79
496,1273,4619,325,459,111
507,1354,4650,271,496,177
470,1441,4555,223,536,223
416,1493,4539,176,558,245
366,1573,4534,140,581,253
304,1657,4470,138,609,246
263,1612,4430,138,620,253
258,1578,4432,149,638,271
230,1522,4269,130,660,304
230,1522,4269,130,660,304
216,1679,4299,92,649,354
199,1852,4292,57,652,367
184,1743,4279,44,670,335
177,1487,4232,25,697,325
163,1654,4239,7,718,359
109,2100,4206,16,757,350
104,2321,4094,35,787,264
181,2188,4152,45,795,159
234,2119,4206,28,827,113
211,2292,4083,-3,868,112
108,2469,3969,-66,889,103
34,2680,3835,-111,893,66
-42,2733,3733,-158,890,-8
-154,2614,3610,-245,881,-68
-246,2685,3536,-360,861,-81
-383,2747,3363,-483,839,-84
-476,2728,3236,-643,794,-82
-540,2723,3221,-821,739,-74
-618,2719,3139,-956,697,-89
-681,2518,3031,-1075,653,-123
-718,2305,2996,-1176,605,-142
-826,2293,2900,-1250,562,-151
-934,2251,2756,-1299,511,-183
-1016,2001,2681,-1365,448,-232
-1105,1747,2633,-1423,386,-266
-1190,1801,2639,-1450,322,-293
-1245,1719,2540,-1434,269,-372
-1218,1352,2614,-1420,196,-467
-1233,1271,2785,-1385,133,-526
-1249,1796,2830,-1354,93,-571
-1219,1900,2682,-1343,42,-712
-1083,1151,2674,-1461,-55,-821
-1005,-41,2884,-1530,-156,-813
-1131,-572,2939,-1487,-216,-664
-1344,-119,2690,-1356,-275,-505
-1364,259,2492,-1245,-380,-492
-1189,-183,2564,-1162,-518,-585
-967,-652,2774,-1112,-636,-605
-764,-963,3025,-1060,-715,-562
-618,-1170,3331,-991,-744,-499
-588,-709,3569,-864,-724,-451
-640,-283,3369,-694,-697,-502
-566,-499,3481,-664,-726,-585
-504,-800,3538,-765,-773,-572
-422,-1161,3928,-911,-820,-450
-457,-1159,3946,-765,-851,-341
-470,-910,3860,-736,-874,-227
-376,-1066,4116,-781,-904,-180
-307,-1207,4323,-680,-903,-166
-211,-1433,4256,-531,-881,-128
-82,-1603,4362,-415,-873,-52
0,-1466,4295,-319,-841,44
71,-1704,4265,-247,-820,97
82,-2092,4297,-145,-793,146
64,-2003,4187,15,-763,220
123,-1947,4179,191,-759,252
309,-1966,4386,339,-757,288
463,-1785,4538,471,-739,362
523,-1355,4591,531,-699,441
604,-1117,4664,557,-667,477
677,-1055,4917,637,-637,475
686,-945,4835,819,-568,474
749,-836,4681,936,-532,501
850,-704,4810,963,-520,560
876,-572,4843,1021,-481,612
836,-250,4869,1096,-427,660
838,146,4790,1180,-371,663
885,61,4738,1225,-331,639
873,199,4797,1240,-288,664
873,199,4797,1240,-288,664
776,815,4615,1259,-238,691
746,1056,4609,1239,-230,647
719,721,4467,1206,-204,601
655,551,4252,1157,-212,639
582,795,4236,1131,-239,678
536,1141,4167,1173,-249,642
580,1171,4085,1217,-268,566
609,1343,4123,1202,-288,518
633,1554,4095,1185,-307,478
681,1385,4065,1159,-326,441
747,1416,4086,1114,-345,465
852,1675,4150,1057,-349,497
836,1696,4126,998,-327,493
730,2030,4016,982,-303,461
638,2162,3767,985,-295,359
660,1869,3678,949,-329,273
628,1701,3648,913,-358,245
562,1688,3513,902,-395,250
570,1878,3566,859,-458,277
605,1998,3577,818,-494,269
670,1831,3659,791,-518,246
652,2133,3672,799,-520,239
652,2359,3568,798,-524,186
773,2188,3719,759,-547,127
786,2197,3788,763,-538,99
747,2493,3710,751,-528,90
776,2474,3755,693,-538,59
765,2428,3859,643,-547,46
721,2772,3967,628,-548,25
711,3049,3961,643,-541,-54
796,3039,3991,655,-555,-163
878,2963,4104,610,-559,-246
955,2874,4159,582,-555,-310
1003,2819,4199,534,-542,-351
1006,3005,4162,454,-533,-367
1037,3082,4237,355,-543,-403
1090,2904,4233,245,-543,-441
1093,2685,4225,175,-543,-467
1058,2660,4083,141,-557,-481
1091,2658,4200,56,-577,-505
1163,2532,4304,9,-565,-552
1240,2319,4333,-31,-546,-574
1273,2192,4426,-116,-515,-561
1263,2258,4343,-163,-474,-547
1298,2176,4277,-211,-453,-562
1343,1980,4285,-259,-439,-579
1368,1797,4211,-296,-426,-588
1450,1504,4331,-324,-422,-582
1527,1512,4377,-315,-396,-552
1602,1557,4473,-322,-368,-543
1663,1452,4597,-337,-321,-557
1649,1315,4575,-341,-253,-564
1617,1116,4552,-364,-200,-553
1599,1180,4718,-366,-150,-526
1489,1327,4589,-287,-81,-540
1467,1216,4558,-274,-44,-566
1458,1046,4639,-271,-17,-565
1411,1047,4625,-262,14,-526
1352,1088,4617,-267,35,-484
1341,1057,4656,-290,52,-456
1395,922,4840,-294,85,-431
1393,929,4941,-265,152,-396
1335,1073,4872,-234,226,-365
1286,913,4834,-208,282,-355
1267,754,4810,-167,330,-308
1231,889,4750,-149,374,-241
1183,970,4746,-116,411,-208
1151,1086,4648,-77,432,-203
1125,1001,4631,-77,459,-214
1125,1001,4631,-77,459,-214
1159,880,4677,-63,483,-207
1208,725,4737,-12,522,-183
1181,918,4558,15,568,-127
1231,1097,4727,-22,600,-96
1183,1105,4752,-1,670,-100
1067,1083,4573,46,741,-89
899,1108,4352,38,778,-52
766,1121,4249,0,776,-13
729,978,4300,7,754,16
699,1092,4270,51,743,53
711,1274,4212,78,736,65
713,1286,4306,97,731,41
671,1312,4145,141,745,15
673,1135,4110,127,743,10
681,1051,4133,117,742,42
691,1236,4095,139,756,80
692,1370,4068,168,766,94
605,1513,3877,205,780,87
559,1594,3822,175,766,79
524,1581,3827,151,749,66
504,1580,3750,138,743,58
507,1404,3742,127,732,57
480,1367,3713,116,726,96
451,1581,3624,116,720,133
393,1710,3538,109,709,128
339,1675,3487,106,699,110
312,1688,3425,102,684,105
316,1746,3408,72,665,114
291,1697,3391,12,656,141
241,1719,3417,-34,640,174
178,2021,3239,-71,628,184
121,2005,3212,-126,587,157
9,1760,3409,-126,546,124
-35,1603,3203,24,556,108
-30,1893,3052,49,496,127
-72,1943,3216,-59,434,128
-83,1791,3305,-129,414,122
-134,1723,3296,-144,404,133
-224,1858,3201,-126,384,135
-243,1879,3234,-103,353,95
-210,1759,3349,-81,323,58
-226,1700,3337,-77,313,53
-287,1702,3311,-77,287,65
-351,1756,3225,-97,253,68
-328,1779,3327,-140,201,65
-285,1730,3504,-165,171,46


-295,2010,3526,-155,829,57
-242,2001,3686,-218,797,62
-272,2316,3616,-222,806,58
-318,2437,3529,-211,813,-4
-381,2306,3412,-193,813,-79
-445,2190,3336,-201,806,-111
-506,2327,3266,-202,793,-127
-577,2338,3144,-218,772,-166
-577,2119,3127,-256,738,-182
-624,2167,3049,-301,711,-157
-733,2358,2872,-359,673,-148
-813,2306,2792,-403,611,-186
-829,2118,2805,-432,546,-224
-809,2146,2898,-476,493,-230
-822,2029,2909,-515,457,-243
-846,1840,2891,-558,427,-238
-900,1920,2944,-599,397,-211
-967,2119,2933,-631,376,-214
-980,2078,2925,-661,352,-257
-1018,1889,2912,-690,324,-290
-1088,1709,2866,-726,286,-287
-1147,1770,2919,-746,228,-268
-1217,1807,2832,-725,165,-275
-1227,1628,2830,-742,83,-303
-1238,1506,2930,-765,4,-320
-1212,1496,3045,-737,-57,-350
-1154,1422,3098,-725,-102,-385
-1093,1444,3232,-758,-145,-401
-1085,1423,3317,-785,-171,-426
-1084,1116,3248,-824,-198,-447
-1108,779,3290,-872,-248,-436
-1157,774,3214,-858,-297,-410
-1138,998,3286,-831,-364,-419
-1083,999,3213,-793,-422,-486
-944,581,3271,-805,-497,-533
-809,232,3489,-831,-559,-512
-740,272,3545,-821,-586,-451
-651,397,3572,-838,-609,-405
-551,158,3770,-891,-624,-403
-530,-144,3929,-896,-607,-384
-629,-75,3889,-880,-575,-338
-787,-30,3818,-852,-566,-316
-866,-259,3640,-801,-581,-315
-885,-692,3661,-783,-639,-282
-862,-820,3642,-728,-705,-189
-766,-710,3831,-669,-763,-107
-689,-635,3896,-590,-802,-57
-622,-592,3956,-539,-832,-31
-584,-782,3947,-528,-855,-23
-442,-1056,4170,-471,-887,-7
-231,-1054,4451,-358,-880,37
-41,-983,4552,-235,-833,96
59,-975,4643,-189,-783,169
86,-785,4842,-127,-729,235
81,-580,4770,19,-659,248
81,-580,4770,19,-659,248
115,-667,4688,93,-618,264
138,-831,4726,112,-601,325
98,-728,4689,137,-575,409
73,-598,4621,168,-561,455
111,-662,4676,209,-558,470
146,-688,4622,277,-541,499
97,-773,4473,337,-533,537
150,-825,4560,428,-537,584
187,-811,4413,602,-495,615
279,-612,4269,750,-502,647
387,-485,4532,831,-505,662
500,48,4630,982,-459,656
629,373,4759,1096,-403,615
697,404,4706,1134,-338,599
693,396,4659,1140,-294,621
663,657,4531,1135,-256,677
669,747,4406,1115,-235,708
696,579,4339,1109,-220,728
643,522,4187,1134,-200,770
607,613,4092,1201,-183,809
626,710,3990,1301,-181,830
577,1665,4037,1349,-194,847
540,2575,3874,1288,-191,764
668,1870,4002,1150,-229,603
697,1196,4085,1021,-239,607
575,1583,3951,943,-236,719
493,1951,3873,922,-255,728
507,1854,3862,930,-283,675
556,1598,3801,963,-299,658
600,1672,3773,983,-325,708
621,2021,3805,1027,-336,739
669,2897,3894,1043,-325,705
699,3323,3827,1003,-291,546
793,2765,3853,908,-271,361
756,2370,3753,811,-253,300
594,2458,3523,733,-262,315
589,2536,3561,668,-318,322
676,2443,3705,638,-370,319
744,2249,3754,647,-392,334
759,2259,3753,687,-397,369
710,2940,3734,726,-397,375
673,3632,3569,686,-403,277
795,3279,3732,578,-426,96
840,2760,3784,507,-418,-8
752,2733,3645,437,-409,-7
647,2840,3497,376,-430,1
579,2865,3407,329,-476,-13
562,2765,3359,307,-533,-40
596,2646,3369,294,-596,-52
627,2693,3362,288,-648,-46
614,3088,3281,209,-695,-50
691,3127,3307,91,-756,-109
826,2792,3503,0,-806,-177
890,2649,3542,-39,-812,-214
915,2660,3525,-68,-811,-243
949,2678,3587,-101,-817,-281
1025,2692,3631,-123,-818,-324
1138,2653,3722,-173,-814,-363
1210,2536,3869,-239,-797,-380
1209,2536,3868,-294,-767,-372
1209,2427,3864,-345,-750,-371
1265,2240,3915,-388,-742,-367
1353,2314,4056,-417,-725,-363
1383,2330,4143,-405,-692,-403
1489,2259,4187,-386,-652,-458
1556,2049,4240,-421,-611,-489
1567,1954,4262,-453,-566,-485
1584,1988,4300,-474,-526,-485
1584,1984,4332,-510,-479,-510
1584,1984,4332,-510,-479,-510
1575,1759,4379,-540,-439,-539
1540,1481,4383,-548,-404,-537
1520,1398,4416,-534,-376,-505
1556,1442,4549,-513,-356,-476
1615,1549,4660,-494,-319,-460
1631,1529,4681,-489,-271,-472
1615,1284,4713,-504,-225,-479
1584,1185,4688,-516,-178,-455
1561,1139,4718,-504,-143,-436
1556,1044,4749,-470,-102,-425
1530,1029,4754,-434,-54,-411
1524,942,4721,-390,-10,-406
1560,794,4733,-343,26,-390
1620,889,4817,-311,68,-342
1646,1068,4752,-293,126,-314
1578,919,4747,-295,167,-327
1528,789,4714,-231,214,-324
1526,741,4622,-158,257,-309
1528,814,4613,-115,287,-286
1537,978,4616,-100,316,-257
1515,1053,4590,-100,354,-235
1437,1049,4501,-98,393,-218
1362,977,4414,-98,419,-198
1337,928,4405,-99,432,-162
1283,1034,4395,-83,451,-129
1251,1338,4403,-49,474,-131
1225,1395,4362,-20,503,-181
1224,994,4315,-15,529,-215
1131,764,4211,-9,556,-167
1025,839,4050,4,564,-79
991,870,4067,22,554,-16
978,1164,4130,72,551,18
1014,1533,4168,107,562,11
1024,1475,4182,119,584,-24
969,1286,4094,140,613,-41
894,1328,3976,165,625,-38
861,1402,3903,183,623,-35
838,1311,3860,170,613,-22
824,1172,3892,143,599,19
812,1295,3889,142,595,73
797,1494,3869,158,594,93
782,1655,3838,177,595,79
800,1622,3844,185,594,46
793,1583,3860,185,596,32
759,1760,3833,175,600,32
762,1706,3885,165,600,7
784,1543,3913,162,619,0
769,1611,3898,149,644,30
716,1773,3855,116,670,54
592,1843,3747,93,688,45
460,1953,3583,109,679,18
455,1835,3573,116,650,-19
502,1641,3651,110,625,-25
487,1593,3570,101,614,11
450,1826,3549,76,601,49
435,1908,3526,54,590,43
508,1736,3586,29,578,40
584,1603,3664,-6,588,73
622,1573,3772,-44,616,130
519,1850,3634,-58,665,176
352,2092,3440,-50,679,159
255,2019,3412,-43,664,90
199,2015,3414,2,647,26
102,1971,3261,37,622,-21
-1,1893,3198,4,572,-36
-50,1808,3255,-30,513,-29
-6,1756,3332,-51,459,-10
-6,1872,3321,-89,433,21
-6,1872,3321,-89,433,21
-60,1842,3255,-148,407,43
-78,1686,3293,-206,359,80
-124,1758,3258,-274,325,129
-155,1837,3265,-359,273,159
-157,1856,3339,-391,217,148


437,1836,4211,224,574,5
410,1852,4204,191,580,14
388,1928,4247,182,588,16
361,1903,4199,184,606,14
352,1756,4206,171,619,21
317,1862,4189,169,642,48
271,1983,4147,178,671,45
228,2015,4107,165,694,22
176,2003,4117,148,709,15
115,2095,3920,104,721,21
56,1924,4334,108,724,14
22,2122,3854,266,791,40
-61,2169,3718,223,767,29
-135,2277,3696,117,738,22
-144,2294,3827,51,725,8
-170,2267,3734,42,741,-9
-202,2170,3645,8,741,-4
-228,2074,3625,4,726,19
-253,2194,3470,8,721,55
-253,2194,3470,8,721,55
-231,2369,3495,-47,703,74
-188,2422,3549,-73,699,46
-186,2471,3512,-103,718,24
-334,2659,3273,-173,735,15
-449,2634,3241,-230,706,-22
-538,2604,3090,-238,677,-70
-586,2734,3064,-273,634,-105
-607,2834,3023,-303,593,-149
-612,2730,2986,-387,548,-177
-677,2541,2909,-469,500,-175
-746,2604,2829,-526,447,-162
-799,2818,2782,-575,391,-183
-795,2678,2789,-636,334,-243
-750,2357,2879,-732,287,-264
-776,2254,2906,-818,263,-242
-845,2383,2843,-876,243,-232
-923,2292,2769,-917,218,-277
-995,2048,2679,-929,180,-331
-1047,2100,2624,-953,123,-359
-1080,2272,2718,-1026,62,-395
-1090,2198,2769,-1105,6,-447
-1077,1960,2790,-1187,-51,-469
-1085,1530,2817,-1260,-118,-452
-1131,1175,2762,-1265,-190,-397
-1199,1134,2688,-1241,-268,-350
-1189,1234,2699,-1200,-360,-360
-1076,1235,2881,-1130,-449,-440
-957,962,2968,-1034,-503,-545
-816,665,3053,-1008,-544,-585
-705,417,3234,-1036,-578,-559
-671,194,3307,-1077,-593,-501
-640,-66,3579,-1086,-609,-438
-666,-130,3681,-987,-597,-375
-693,92,3594,-887,-588,-314
-719,313,3580,-850,-603,-301
-752,444,3479,-840,-638,-336
-682,164,3500,-842,-704,-393
-458,-504,3856,-844,-766,-394
-311,-811,3975,-778,-772,-284
-280,-341,3954,-765,-768,-130
-314,-410,3906,-797,-774,-71
-255,-1037,3990,-831,-791,-11
-220,-1223,4034,-757,-802,85
-147,-956,4101,-657,-800,167
-65,-717,4241,-539,-783,180
-36,-771,4234,-379,-752,140
12,-978,4205,-261,-727,132
62,-1228,4264,-188,-717,184
105,-1136,4373,-79,-703,281
102,-853,4254,45,-685,365
168,-778,4301,123,-691,414
248,-810,4356,175,-692,468
317,-890,4378,229,-682,531
353,-744,4413,303,-660,585
402,-471,4321,416,-639,599
522,-536,4452,471,-625,600
603,-607,4398,532,-578,636
677,-340,4464,593,-573,701
728,-31,4632,627,-549,750
746,207,4602,684,-500,755
783,210,4544,744,-472,739
868,73,4595,793,-456,753
938,287,4639,848,-429,815
1003,554,4666,904,-398,865
1008,1005,4714,950,-363,896
984,1261,4651,963,-314,875
957,1122,4586,980,-276,819
924,1191,4458,1008,-245,791
924,1191,4458,1008,-245,791
921,1225,4286,1016,-230,768
893,1213,4197,957,-235,781
864,1268,4189,908,-251,808
827,1506,4093,903,-255,812
811,1513,4040,902,-267,764
831,1434,4119,940,-275,704
867,1582,4052,1033,-258,664
900,1897,3949,1058,-255,642
929,1944,3924,1043,-256,609
907,2127,3810,1004,-260,610
865,2508,3717,893,-276,608
839,2212,3641,769,-310,566
818,1728,3641,702,-349,558
777,1787,3588,728,-378,589
780,2114,3550,808,-412,581
855,2513,3711,906,-441,505
1014,2643,3859,985,-438,410
1120,2882,3857,968,-407,357
1055,3080,3729,821,-390,343
1014,3018,3746,668,-401,322
987,2942,3808,564,-410,297
912,2907,3763,534,-409,256
843,2944,3569,550,-420,196
851,2875,3520,520,-468,136
884,2713,3630,523,-512,88
951,3068,3593,540,-533,67
1056,3545,3835,453,-555,-4
1078,3440,3914,371,-537,-144
1030,3192,3916,296,-526,-269
915,3058,3856,270,-522,-348
837,3074,3648,241,-540,-394
890,3205,3676,160,-619,-428
1026,2907,3858,60,-683,-470
1126,2548,3958,-4,-705,-461
1198,2727,3924,-57,-724,-408
1287,2851,4099,-147,-740,-418
1406,2650,4172,-179,-712,-476
1509,2482,4145,-197,-672,-516
1580,2317,4159,-251,-638,-538
1623,2351,4172,-307,-606,-543
1641,2342,4173,-339,-576,-579
1689,2008,4208,-337,-549,-645
1788,1665,4340,-340,-511,-665
1834,1654,4375,-360,-464,-622
1823,1740,4392,-419,-418,-588
1782,1654,4403,-458,-372,-591
1707,1553,4392,-444,-328,-609
1693,1388,4393,-421,-297,-629
1736,1278,4508,-406,-267,-626
1748,1361,4603,-385,-221,-618
1755,1381,4685,-356,-163,-629
1749,1062,4678,-357,-103,-625
1735,887,4766,-375,-48,-553
1629,1148,4721,-387,10,-463
1562,1256,4721,-400,49,-436
1578,1313,4770,-380,93,-453
1598,1224,4849,-337,149,-486
1573,1045,4753,-285,203,-487
1594,872,4729,-272,232,-437
1574,912,4730,-270,272,-361
1527,1073,4629,-254,316,-313
1523,865,4641,-218,350,-310
1526,735,4633,-171,401,-282
1472,1050,4590,-135,455,-241
1404,1173,4498,-108,500,-249
1355,999,4466,-101,532,-258
1267,886,4385,-97,556,-221
1191,996,4419,-68,569,-176
1133,1153,4300,-28,598,-156
1133,1153,4300,-28,598,-156
1066,1230,4276,-17,607,-161
998,1235,4238,-10,619,-166
981,1070,4156,5,639,-144
927,1110,4049,-26,608,-107
929,1096,4299,-26,615,-65
898,1166,4078,27,662,-35
863,1143,4108,62,668,-33
793,1247,3990,126,687,-33
724,1286,3776,153,683,-37
736,1170,3880,134,643,-33
773,1255,3932,141,638,-3
809,1379,3918,151,645,13
841,1446,3974,141,660,15
830,1419,3902,141,688,16
769,1415,3780,138,701,29
698,1492,3685,140,694,44
689,1549,3651,140,669,49
737,1463,3745,133,647,61
732,1552,3754,138,656,84
656,1703,3645,148,671,83
633,1630,3608,153,670,59
629,1597,3654,163,667,57
541,1849,3528,168,671,83
480,1962,3465,158,652,83
420,1939,3385,142,627,70
369,1881,3317,124,593,61
353,1822,3304,102,555,66
321,1802,3272,73,524,82
292,1913,3330,45,500,97
293,2089,3369,37,491,85
270,2037,3306,7,489,59
205,1974,3289,-46,483,62
47,1909,3123,-87,470,76
-124,1861,3003,-98,426,74
-187,1775,2952,-69,359,53
-144,1687,3043,-50,283,51
-81,1809,3180,-44,225,71
-72,2030,3214,-39,195,75
-42,1964,3260,-50,164,47
-3,1889,3361,-56,139,32
-7,1976,3356,-58,129,28


562,990,4443,-113,662,135
473,934,4266,-95,679,150
377,1012,4165,-131,672,185
326,1076,4241,-158,656,196
312,942,4185,-103,657,180
302,926,4043,-89,655,195
267,971,4038,-133,640,226
212,1041,4134,-140,631,241
205,1186,4173,-62,639,219
232,1227,4217,-27,668,177
173,1234,4176,-16,704,155
88,1214,4042,-7,720,154
33,1118,4003,-12,711,167
-7,1248,3960,8,699,191
-43,1423,3997,27,684,196
-94,1522,4041,36,681,171
-105,1352,3915,52,679,143
-86,1175,3881,25,660,163
-65,1329,3972,-12,647,220
-100,1538,3938,-24,653,242
-124,1611,3801,-51,651,232
-102,1727,3932,-106,639,206
-130,1705,4049,-96,660,151
-229,1610,3872,-13,698,101
-309,1738,3759,17,699,76
-363,1815,3782,17,679,42
-424,1778,3720,8,662,11
-444,1913,3724,-23,635,-11
-448,2041,3819,-79,609,-37
-498,1989,3755,-120,592,-60
-539,1982,3748,-165,564,-69
-571,2211,3820,-184,544,-92
-615,2366,3783,-200,544,-155
-695,2216,3600,-244,537,-228
-810,1851,3369,-321,498,-259
-884,1689,3285,-386,427,-242
-928,1865,3293,-442,361,-222
-1020,1930,3194,-503,308,-251
-1107,1642,3049,-556,246,-308
-1120,1355,3032,-583,166,-338
-1120,1494,3120,-610,93,-341
-1130,1504,3131,-628,38,-387
-1086,1260,3096,-625,-7,-462
-1043,1024,3107,-612,-57,-500
-991,969,3158,-590,-102,-506
-996,1038,3129,-601,-144,-499
-1058,1180,3045,-677,-199,-497
-1102,1099,2974,-758,-271,-536
-1074,632,2854,-772,-350,-601
-984,178,2833,-744,-439,-612
-859,-96,2859,-699,-516,-560
-706,-121,2979,-669,-580,-476
-575,-18,3184,-639,-611,-417
-530,122,3406,-609,-604,-383
-642,131,3227,-574,-588,-384
-674,-311,3260,-540,-618,-411
-551,-700,3363,-423,-658,-390
-403,-827,3504,-323,-685,-312
-308,-770,3685,-251,-701,-216
-246,-473,3838,-183,-696,-144
-246,-473,3838,-183,-696,-144
-192,-389,3926,-150,-685,-121
-254,-425,3992,-148,-676,-98
-367,-597,3865,-129,-677,-79
-325,-965,3914,-79,-718,-65
-136,-1066,4182,-2,-754,-4
-12,-919,4381,66,-747,75
12,-722,4403,112,-716,132
-16,-741,4314,156,-690,156
31,-842,4277,186,-688,181
178,-982,4499,237,-691,212
361,-779,4770,341,-663,254
458,-573,4870,420,-604,283
467,-643,4779,462,-550,305
447,-670,4644,488,-531,355
469,-709,4541,489,-542,414
481,-779,4649,490,-549,476
434,-526,4549,560,-519,526
421,-454,4499,631,-502,525
416,-373,4393,708,-495,532
482,-177,4476,739,-506,564
580,108,4549,765,-510,602
719,211,4644,754,-503,632
801,324,4729,751,-475,674
774,417,4505,734,-434,713
769,381,4342,679,-420,741
741,461,4258,625,-411,773
759,337,4170,611,-407,779
820,333,4241,627,-406,795
782,580,4238,703,-375,800
761,785,4164,801,-345,763
784,861,4118,867,-329,721
812,961,4120,906,-328,711
809,1225,4071,917,-338,726
838,1380,4111,856,-360,736
921,1520,4155,797,-374,737
1080,1611,4284,761,-382,732
1166,1617,4349,716,-358,739
1105,1883,4253,694,-321,738
1041,1913,4045,696,-295,690
1030,1800,3926,693,-301,651
997,2006,3804,679,-316,645
933,2103,3698,639,-352,621
908,2503,3786,593,-384,584
916,2756,3920,573,-392,486
937,2414,3936,554,-387,394
865,2595,3842,526,-392,389
829,2858,3893,482,-415,368
825,2856,3948,478,-426,318
821,3143,3866,474,-432,273
841,3329,3993,407,-465,199
937,3212,4110,328,-483,132
963,3009,4033,240,-492,109
883,3110,3979,175,-503,94
857,3435,3955,136,-530,13
922,3265,4106,75,-550,-120
970,2994,3917,28,-550,-214
955,2830,4032,-44,-598,-252
998,2754,3998,-63,-619,-266
1073,2663,3991,-99,-641,-286
1152,2681,4097,-148,-647,-332
1261,2656,4293,-166,-623,-413
1300,2566,4231,-167,-564,-499
1239,2398,4133,-175,-523,-580
1194,2366,4041,-152,-516,-640
1210,2218,3992,-166,-543,-683
1290,1940,4069,-204,-585,-693
1434,1954,4287,-258,-610,-667
1548,2003,4500,-326,-595,-659
1602,1747,4567,-364,-547,-677
1602,1747,4567,-364,-547,-677
1635,1641,4641,-371,-495,-676
1654,1694,4688,-366,-444,-688
1693,1465,4657,-389,-399,-712
1734,1099,4669,-442,-366,-686
1776,970,4781,-485,-337,-624
1801,936,4877,-512,-285,-575
1790,715,4883,-509,-216,-570
1800,494,4915,-448,-145,-578
1825,454,4969,-373,-77,-573
1818,485,4925,-343,-6,-553
1773,283,4906,-348,45,-537
1760,103,4910,-320,90,-489
1731,129,4911,-303,134,-417
1707,86,4886,-285,183,-358
1634,17,4824,-265,230,-303
1621,100,4908,-236,274,-255
1601,306,4911,-197,331,-237
1527,445,4832,-180,387,-243
1448,322,4775,-167,425,-250
1416,329,4811,-136,455,-215
1395,415,4804,-104,492,-157
1354,426,4732,-87,531,-101
1276,678,4677,-70,566,-49
1187,870,4605,-46,598,-46
1141,839,4549,-32,619,-64
1132,806,4557,-31,633,-56
1122,760,4482,-29,651,-22
1081,774,4433,-45,667,20
1007,935,4362,-34,688,50
941,938,4216,-41,701,56
942,866,4168,-62,699,70
955,1014,4214,-80,694,98
930,1118,4151,-98,705,109
857,999,4002,-126,707,111
798,885,3901,-132,692,122
794,923,3912,-121,669,131
797,997,3907,-101,660,129
792,920,3806,-100,655,130
788,792,3847,-114,641,150
728,909,3802,-101,643,184
659,972,3742,-84,640,193
620,1062,3712,-65,628,189
626,1037,3783,-49,611,182
579,1118,3774,-30,606,187
521,1092,3698,-26,591,185
452,1003,3672,-19,566,187
442,1079,3689,11,539,188
472,1216,3805,44,520,179
475,1289,3824,57,513,161
457,1156,3823,53,505,152
453,1197,3849,52,491,170
452,1321,3916,46,479,184
426,1299,3890,39,476,177
409,1170,3873,37,469,176
388,1298,3849,43,464,194
370,1490,3884,43,458,181
405,1453,3945,54,457,142
425,1397,3963,57,466,126
333,1401,3879,50,475,131
262,1361,3798,62,466,128
252,1380,3781,83,444,124
294,1479,3814,92,418,124
314,1572,3866,72,406,117
263,1672,3869,55,406,97
210,1662,3844,46,400,65
178,1497,3810,24,388,53
78,1531,3702,-8,367,77
78,1531,3702,-8,367,77
38,1508,3664,-47,327,91


530,711,4681,140,353,411
525,693,4635,134,354,403
587,671,4708,98,350,410
660,598,4873,71,359,426
666,635,4990,41,401,469
626,841,4965,45,463,500
503,963,4811,84,513,480
415,1041,4668,96,538,455
458,1115,4629,79,538,423
479,903,4669,60,533,388
511,775,4682,42,538,405
579,846,4715,45,546,442
582,864,4693,56,567,455
528,888,4634,44,597,458
499,963,4650,49,620,447
500,930,4675,84,652,417
443,724,4625,97,690,408
385,772,4634,94,720,455
326,1115,4598,112,747,507
246,1237,4469,89,769,512
160,1188,4323,50,774,502
126,1144,4316,26,756,500
160,1290,4388,6,737,521
216,1590,4502,28,729,510
216,1590,4502,28,729,510
258,1847,4626,60,746,445
304,1991,4774,75,793,347
308,2094,4867,66,872,255
273,2222,4771,67,963,174
112,2247,4500,40,1035,93
-63,2167,4191,-21,1062,29
-226,2013,3966,-91,1044,-21
-347,2040,3884,-141,1002,-50
-352,2137,3845,-164,955,-96
-310,2103,3904,-217,907,-144
-232,2142,4059,-282,879,-169
-207,2102,4111,-364,897,-201
-292,1993,3967,-489,948,-215
-429,2195,3457,-604,973,-227
-588,2224,3057,-710,906,-305
-747,1711,3073,-784,797,-406
-866,1134,3218,-745,721,-416
-946,1357,3063,-687,690,-344
-1009,1907,2737,-716,644,-351
-1037,1877,2615,-819,559,-474
-1054,1362,2643,-915,471,-604
-1083,987,2576,-935,408,-680
-1139,832,2456,-932,343,-711
-1120,849,2458,-920,256,-733
-1088,802,2557,-907,178,-778
-1114,806,2617,-891,122,-829
-1047,912,2620,-846,70,-901
-1003,575,2615,-815,17,-1010
-1077,-105,2505,-824,-39,-1063
-1177,-313,2486,-818,-129,-1002
-1217,16,2567,-770,-223,-940
-1210,164,2547,-708,-299,-974
-1112,-114,2455,-645,-389,-1057
-990,-747,2478,-650,-507,-1088
-908,-1207,2699,-728,-630,-998
-791,-1114,2975,-753,-724,-849
-696,-926,3114,-728,-775,-761
-694,-894,3133,-712,-808,-718
-632,-894,3184,-654,-851,-702
-489,-1174,3321,-581,-893,-717
-411,-1603,3499,-552,-919,-683
-394,-1710,3670,-518,-933,-574
-372,-1682,3711,-462,-932,-469
-401,-1906,3612,-406,-935,-389
-406,-1972,3495,-353,-961,-291
-296,-1854,3557,-269,-1016,-220
-139,-2015,3785,-168,-1067,-187
34,-2238,4186,-102,-1083,-114
162,-2345,4458,-16,-1049,0
181,-2349,4494,75,-990,126
184,-2205,4387,171,-944,233
256,-2106,4390,268,-920,296
352,-2105,4501,390,-897,330
414,-2191,4554,508,-851,368
435,-2164,4455,634,-804,434
477,-2179,4243,739,-783,513
495,-2533,4018,820,-794,610
518,-2940,3939,925,-836,777
586,-2875,4105,1108,-875,990
596,-2190,4171,1343,-868,1160
515,-677,4212,1547,-845,1223
723,1212,4565,1729,-827,1070
1004,1192,5008,1782,-756,673
1022,-133,5273,1661,-615,452
1099,-520,5120,1626,-456,543
992,-438,4649,1620,-341,699
820,-224,4206,1585,-302,843
734,-13,4017,1606,-330,934
734,-13,4017,1606,-330,934
730,9,4015,1667,-372,974
699,143,4125,1773,-406,1009
688,1175,4135,1889,-409,1050
730,2128,4131,1894,-419,975
787,2485,4238,1778,-435,822
858,2181,4266,1600,-436,676
847,1445,4142,1405,-434,628
743,1477,4118,1238,-460,716
667,2201,4140,1168,-486,775
632,2545,4078,1091,-499,720
669,2392,4051,981,-523,639
661,2395,4222,841,-560,620
706,2733,4340,745,-569,606
704,2527,4193,646,-556,536
648,2291,3991,536,-568,507
637,2371,3833,469,-616,488
630,2459,3775,418,-681,438
667,2471,3729,366,-744,367
736,2410,3762,304,-810,294
783,2539,3881,232,-864,245
872,2681,3974,154,-897,185
964,2558,3976,73,-909,110
1014,2509,3965,-7,-924,66
1036,2576,3904,-86,-937,30
1035,2774,3912,-164,-961,-12
1081,2870,4090,-255,-976,-86
1071,2742,4182,-354,-957,-170
1040,2586,4026,-404,-916,-246
1042,2416,3909,-409,-913,-317
1064,2472,3984,-429,-939,-363
1132,2525,4002,-458,-949,-421
1210,2360,3931,-503,-963,-483
1347,2126,3859,-564,-998,-520
1563,2051,4122,-643,-1052,-528
1787,2266,4560,-725,-1060,-529
1941,2311,4753,-791,-999,-575
1976,2353,4659,-877,-922,-623
2044,2398,4791,-996,-877,-683
2036,2031,5009,-1070,-809,-786
1976,1618,5012,-1059,-689,-857
1936,1424,4887,-985,-562,-891
1961,1298,4626,-908,-461,-917
2086,1003,4561,-879,-408,-928
2166,805,4734,-922,-377,-869
2152,758,4720,-964,-314,-786
2123,690,4483,-966,-255,-730
2177,371,4428,-929,-233,-721
2200,95,4606,-865,-203,-702
2198,195,4742,-758,-127,-670
2217,340,4675,-640,-28,-672
2213,151,4529,-559,50,-696
2135,0,4491,-535,105,-678
2021,-118,4410,-517,156,-643
1865,-353,4217,-446,194,-618
1779,-473,4132,-347,191,-588
1773,-519,4170,-251,175,-560
1819,-728,4304,-141,165,-529
1864,-677,4585,-31,176,-454
1877,-186,4745,64,232,-377
1888,-49,4669,133,308,-371
1837,-248,4551,139,364,-358
1773,-89,4533,145,390,-311
1717,53,4432,137,413,-289
1722,-159,4426,101,412,-276
1759,-306,4593,101,414,-230
1769,-167,4658,156,456,-176
1773,36,4628,228,507,-158
1817,73,4628,267,554,-162
1819,71,4676,298,598,-156
1819,71,4676,298,598,-156
1783,87,4612,327,650,-135
1726,86,4494,331,691,-108
1683,247,4561,314,703,-61
1625,519,4636,279,734,-24
1528,565,4522,235,779,-19
1405,384,4434,196,802,-15
1335,306,4380,187,814,14
1275,530,4239,165,823,56
1198,574,4150,149,806,58
1119,373,4139,155,790,60
1116,354,3966,162,776,88
1155,153,3973,195,731,112
1213,81,4153,233,701,181
1276,347,4279,249,714,271
1278,652,4307,258,753,319
1202,1011,4188,248,798,323
1179,1149,4036,224,822,271
1158,867,3979,200,821,206
1105,756,4016,176,820,198
1051,922,3970,180,833,201
955,842,3816,193,842,176
868,720,3725,191,829,186
780,807,3613,179,801,227
672,877,3511,136,757,261
593,1040,3525,96,702,284
536,1295,3648,63,658,285
472,1330,3651,22,638,263
413,1215,3565,-37,625,253
351,1166,3493,-65,597,258
300,1106,3411,-73,559,263
255,1101,3393,-89,510,273
256,1231,3452,-98,461,279
274,1451,3521,-98,425,253
262,1557,3518,-113,396,199
234,1428,3429,-149,361,144
210,1224,3406,-197,302,128


837,263,4925,244,333,247
925,586,4966,236,360,269
1005,748,5098,236,390,246
1011,674,5136,232,445,219
960,719,5067,180,506,242
870,764,4949,121,560,269
762,827,4812,85,598,287
722,966,4738,65,618,291
711,966,4745,43,631,274
706,904,4795,14,650,269
688,867,4762,5,680,281
660,888,4774,3,709,296
611,905,4720,14,752,296
552,940,4565,27,789,294
516,930,4432,23,808,281
507,835,4385,13,813,271
476,861,4407,-1,809,287
485,1028,4408,-5,816,294
473,996,4489,-5,826,267
435,925,4542,10,855,247
377,976,4507,29,896,249
334,1209,4476,36,925,249
317,1406,4477,37,940,217
289,1360,4440,9,954,172
247,1238,4408,-55,960,162
213,1325,4501,-112,965,182
205,1533,4575,-133,989,189
205,1533,4575,-133,989,189
161,1615,4538,-139,1025,158
79,1490,4410,-156,1062,118
5,1368,4258,-176,1082,95
-122,1525,4184,-190,1090,88
-203,1850,4122,-195,1089,51
-275,1918,4038,-230,1090,-29
-401,1690,3899,-313,1082,-88
-538,1640,3778,-385,1055,-98
-659,1824,3682,-408,1014,-108
-737,1967,3545,-422,972,-160
-808,1931,3376,-473,921,-232
-907,1809,3197,-546,861,-290
-1014,1742,3069,-624,785,-330
-1057,1747,3020,-686,704,-372
-1092,1635,2964,-716,634,-437
-1103,1452,2906,-749,575,-496
-1157,1185,2862,-792,519,-534
-1255,1140,2763,-804,460,-547
-1341,1258,2642,-807,396,-572
-1393,1263,2478,-811,322,-643
-1438,1030,2261,-834,223,-724
-1449,762,2115,-914,87,-762
-1441,568,2210,-977,-75,-771
-1456,440,2319,-943,-212,-797
-1462,345,2283,-881,-321,-848
-1382,271,2094,-836,-432,-915
-1233,-34,2093,-858,-584,-981
-1038,-357,2507,-915,-753,-981
-772,-565,2963,-902,-858,-944
-650,-964,3062,-890,-886,-890
-709,-1199,2978,-878,-902,-791
-772,-940,2933,-800,-945,-704
-771,-578,2957,-686,-1001,-712
-664,-738,2962,-575,-1059,-818
-494,-1425,2993,-511,-1117,-900
-388,-2002,3189,-496,-1201,-847
-275,-1917,3655,-413,-1264,-693
-138,-1541,3904,-315,-1246,-578
-36,-1611,3903,-206,-1193,-554
17,-1948,3925,-126,-1155,-523
71,-2113,4060,-45,-1138,-441
203,-2016,4189,23,-1113,-333
314,-1849,4378,99,-1086,-246
365,-1715,4497,182,-1038,-185
400,-1862,4475,243,-984,-140
425,-2125,4458,312,-955,-73
492,-2103,4431,405,-944,38
610,-1797,4564,474,-938,141
710,-1619,4735,516,-906,199
765,-1536,4780,558,-847,231
793,-1588,4809,604,-790,253
821,-1732,4803,668,-739,293
832,-1793,4734,742,-686,369
858,-1757,4599,830,-646,456
887,-1697,4606,899,-631,541
895,-1449,4799,999,-611,625
910,-998,4803,1100,-561,688
944,-743,4683,1132,-519,721
970,-685,4701,1115,-504,751
1000,-597,4791,1089,-485,797
986,-473,4755,1085,-445,837
967,-300,4698,1130,-398,849
994,-86,4676,1214,-351,827
1039,20,4635,1295,-300,792
1072,-120,4508,1315,-253,787
1037,-232,4413,1309,-225,845
939,259,4386,1321,-210,941
878,1401,4460,1344,-194,966
876,2044,4448,1313,-173,836
876,2044,4448,1313,-173,836
856,1703,4264,1168,-160,683
814,1120,4193,963,-185,654
772,972,4207,822,-221,728
717,1123,4160,773,-236,789
623,1107,3947,795,-237,783
571,936,3649,836,-257,751
659,803,3604,892,-317,730
749,857,3819,972,-369,734
780,1721,4048,1030,-379,753
850,2643,4025,1012,-356,668
842,2246,3876,877,-347,489
786,1408,3758,732,-364,421
735,1159,3534,669,-401,479
678,1312,3203,645,-467,542
701,1423,3117,616,-584,556
776,1844,3490,616,-705,540
922,2395,3834,655,-754,459
1010,2541,4028,654,-750,327
1128,2948,4280,629,-727,228
1219,2961,4436,578,-671,95
1192,2542,4405,498,-595,0
1081,2526,4261,441,-538,-7
881,2826,3868,380,-515,-11
709,2926,3550,286,-565,-65
681,2964,3615,217,-666,-145
779,2961,3772,154,-749,-227
919,2774,3804,35,-807,-284
1022,2696,3946,-94,-867,-300
1145,2723,4059,-195,-896,-322
1223,2520,3983,-303,-900,-367
1285,2348,4004,-373,-922,-406
1379,2471,4160,-394,-935,-451
1456,2435,4328,-426,-916,-531
1509,2296,4396,-436,-872,-608
1600,2198,4405,-404,-829,-676
1703,1913,4387,-390,-791,-731
1803,1718,4300,-410,-758,-732
1968,1662,4391,-446,-745,-713
2088,1540,4626,-486,-720,-706
2079,1519,4738,-475,-648,-706
2033,1625,4670,-421,-563,-741
2047,1522,4669,-373,-496,-819
2024,1062,4667,-345,-428,-885
1990,758,4642,-351,-359,-865
1964,774,4561,-341,-303,-815
1924,784,4415,-351,-269,-780
1980,744,4536,-372,-269,-767
2063,498,4704,-380,-243,-767
2096,253,4762,-386,-190,-724
2093,425,4794,-399,-137,-647
2109,538,4759,-409,-80,-626
2105,273,4794,-390,-27,-648
2117,59,4845,-334,31,-636
2111,-35,4807,-271,98,-597
2060,98,4767,-225,154,-538
2029,281,4765,-183,198,-508
2065,171,4760,-151,241,-510
2085,-34,4804,-128,279,-487
2072,-25,4891,-107,329,-425
2015,29,4832,-69,389,-367
1949,-29,4700,-29,440,-322
1912,2,4695,-11,473,-263
1896,221,4775,-18,511,-205
1797,178,4789,-16,568,-181
1711,212,4713,9,629,-152
1621,540,4654,61,673,-134
1529,603,4498,99,710,-167
1475,271,4392,100,722,-187
1418,153,4400,94,719,-136
1418,153,4400,94,719,-136
1366,328,4363,83,725,-63
1327,530,4387,84,734,-21
1281,680,4385,97,753,-8
1218,694,4255,85,773,2
1153,476,4098,50,775,22
1079,356,4040,35,757,75
1016,689,4028,45,738,131
1003,1128,4071,75,722,124
1033,1196,4086,68,718,70
1028,779,4058,32,722,33
1005,553,3984,17,725,75
975,646,3848,32,723,137
926,903,3839,56,701,168
951,1183,3888,72,689,159
974,1092,3827,59,691,118
936,974,3847,19,680,115
892,1083,3839,-19,676,145
844,1077,3771,-68,679,156
744,1127,3794,-75,669,163
645,1390,3654,-31,666,159
596,1316,3513,-16,640,115
555,1106,3532,-26,589,99
553,1208,3605,-32,548,127
526,1220,3541,-55,524,139
459,1074,3454,-86,486,141
431,1034,3571,-79,444,151
395,1055,3546,-54,427,155
364,1177,3488,-39,401,151
352,1276,3584,-51,359,133
350,1289,3661,-49,329,110
343,1260,3691,-36,305,89
338,1294,3724,-32,284,86


430,799,4490,98,578,172
401,921,4336,108,582,188
401,879,4362,101,571,171
427,924,4440,124,573,159
430,1098,4489,126,586,148
440,1121,4573,111,608,125
405,971,4601,103,643,111
358,909,4529,85,688,134
298,966,4484,100,718,153
280,1088,4479,98,740,173
290,1191,4519,102,760,179
298,1297,4481,107,784,168
282,1265,4415,65,799,150
274,1242,4511,50,799,135
257,1407,4619,54,818,127
310,1638,4649,71,852,103
321,1637,4704,23,885,75
240,1600,4611,-36,928,75
212,1783,4538,-76,954,84
155,1885,4537,-104,974,59
82,2053,4448,-132,1004,23
0,2176,4242,-194,1022,-23
-104,1999,4025,-281,1014,-90
-238,1778,3990,-347,982,-126
-359,1874,3960,-378,964,-132
-472,2039,3773,-406,964,-162
-561,2019,3614,-466,943,-214
-661,1868,3535,-535,911,-258
-781,1703,3412,-593,886,-284
-925,1625,3199,-633,855,-297
-1038,1657,2975,-659,795,-315
-1127,1684,2816,-694,717,-353
-1188,1586,2743,-722,626,-416
-1233,1351,2683,-757,533,-465
-1266,1221,2629,-788,444,-483
-1261,1004,2539,-823,359,-502
-1295,629,2413,-887,274,-499
-1331,528,2321,-926,169,-461
-1327,650,2342,-916,51,-456
-1306,587,2471,-885,-52,-514
-1268,290,2579,-820,-125,-589
-1316,46,2428,-763,-180,-620
-1316,44,2383,-738,-277,-614
-1263,149,2516,-697,-393,-633
-1197,159,2716,-670,-495,-675
-1142,-10,2841,-668,-581,-705
-1071,-84,2999,-663,-662,-695
-994,-221,3111,-645,-734,-679
-964,-288,3232,-649,-795,-637
-829,-197,3347,-617,-846,-611
-721,-415,3395,-603,-891,-623
-627,-718,3487,-607,-935,-606
-539,-886,3556,-596,-974,-555
-476,-833,3703,-602,-1017,-485
-377,-608,3902,-580,-1041,-446
-377,-608,3902,-580,-1041,-446
-227,-827,4019,-558,-1036,-471
-139,-1574,4081,-524,-1014,-483
-141,-1998,4076,-468,-987,-387
-138,-1703,4087,-346,-973,-254
-84,-1315,4015,-220,-961,-201
-24,-1378,4009,-149,-973,-210
74,-1528,4234,-108,-998,-181
206,-1588,4509,-76,-994,-115
261,-1642,4699,-27,-952,-39
256,-1431,4769,57,-890,42
258,-1249,4591,133,-825,90
268,-1328,4448,152,-804,119
368,-1296,4573,190,-816,163
478,-1437,4635,206,-797,205
519,-1620,4612,202,-768,268
577,-1613,4659,284,-749,335
677,-1458,4701,405,-713,375
727,-1418,4824,523,-670,382
802,-1318,4936,641,-608,410
796,-1277,4819,705,-530,460
753,-1208,4668,742,-480,528
700,-960,4637,790,-455,592
674,-649,4478,844,-422,612
673,-817,4221,865,-408,586
701,-1117,4164,879,-433,605
785,-895,4358,931,-464,685
919,-435,4545,1001,-457,738
1009,-137,4616,1061,-418,733
1044,-34,4598,1088,-365,709
1008,-137,4511,1106,-312,701
885,-209,4155,1120,-270,736
835,-105,3930,1128,-285,794
777,175,4013,1153,-321,834
775,720,4136,1213,-336,833
811,1092,4130,1250,-333,774
818,1166,4152,1195,-338,726
847,1241,4146,1095,-348,722
848,1251,4119,991,-356,735
816,1334,4074,912,-360,752
775,1394,3994,869,-359,736
733,1469,3915,866,-363,699
714,1741,3908,866,-374,661
710,1923,3954,856,-387,598
712,2006,3895,818,-397,540
709,2089,3827,755,-423,495
689,2130,3811,695,-466,452
656,2108,3879,610,-505,415
685,2057,3734,549,-535,382
725,2010,3772,495,-595,355
721,2250,3934,465,-639,333
722,2587,3975,464,-657,272
780,2733,3941,415,-675,177
861,2624,3965,312,-707,90
927,2377,4029,194,-738,40
965,2274,4083,104,-754,24
926,2570,4119,77,-759,10
910,2825,3935,63,-760,-64
947,2532,3746,-11,-794,-177
995,2163,3791,-92,-861,-236
1124,2172,4021,-159,-916,-239
1247,2262,4406,-208,-931,-259
1309,2401,4532,-205,-881,-306
1359,2371,4325,-180,-816,-389
1381,2104,4253,-202,-790,-459
1428,1966,4305,-230,-779,-487
1466,1928,4431,-259,-762,-499
1486,1779,4487,-233,-728,-521
1538,1793,4254,-199,-685,-538
1621,1694,4250,-205,-682,-575
1621,1694,4250,-205,-682,-575
1726,1673,4462,-242,-678,-590
1827,1720,4592,-262,-639,-610
1846,1553,4570,-259,-573,-653
1848,1432,4391,-231,-516,-681
1884,1344,4360,-262,-492,-688
1943,1222,4436,-298,-467,-691
1988,1038,4465,-309,-428,-691
1981,985,4510,-321,-388,-666
1947,976,4476,-320,-343,-648
1861,825,4339,-328,-301,-642
1843,748,4266,-324,-281,-635
1894,696,4294,-336,-271,-623
1982,663,4520,-354,-250,-613
1987,509,4546,-348,-189,-615
1978,378,4440,-310,-131,-606
1969,348,4461,-279,-97,-588
1937,314,4530,-269,-67,-567
1957,247,4635,-256,-37,-545
1972,170,4752,-227,6,-522
1959,173,4829,-172,65,-499
1907,167,4763,-118,127,-480
1873,78,4652,-116,164,-449
1867,13,4734,-124,172,-399
1912,240,4875,-107,190,-342
2003,440,5018,-71,232,-334
2048,226,5049,-60,296,-347
2045,0,5046,-39,363,-316
2039,-45,4920,-33,430,-242
1991,27,4868,-57,478,-160
1961,317,4958,-33,521,-116
1939,441,4983,13,588,-137
1901,365,4982,34,663,-157
1807,290,4799,41,735,-137
1683,276,4637,15,774,-89
1527,357,4619,23,782,-45
1409,396,4526,45,802,-27
1315,401,4363,55,818,-19
1253,398,4294,54,808,-5
1197,207,4262,59,796,12
1130,188,4175,57,789,73
1112,396,4122,37,778,132
1096,440,4125,40,761,149
1114,428,4127,54,752,164
1122,524,4143,59,747,195
1088,755,4149,68,752,208
1039,903,4183,102,760,176
1030,895,4117,172,778,123
1031,630,4012,181,789,99
1021,473,3982,168,782,144
964,689,3858,135,777,230
912,905,3843,117,753,267
884,1089,3858,154,737,245
834,1238,3817,180,733,205
785,1157,3706,147,726,165
698,977,3629,100,698,165
598,994,3557,76,659,200
502,1162,3474,71,614,218
457,1388,3475,80,563,202
478,1339,3486,62,519,157
466,1014,3562,27,483,139
435,1179,3623,26,458,173
388,1587,3544,31,447,170
331,1465,3371,-2,418,108
314,1112,3357,-37,355,69
344,1025,3517,-47,291,89
411,1248,3654,-50,263,123
421,1359,3628,-64,253,112
432,1319,3685,-70,241,81
432,1319,3685,-70,241,81
413,1236,3659,-55,240,49
372,1142,3622,-34,230,29
357,1111,3583,-30,208,33
344,1158,3564,-45,174,50
368,1336,3624,-68,132,57


585,739,4940,129,548,169
585,944,5026,154,615,179
512,946,4854,154,694,166
421,968,4622,132,733,172
369,1103,4507,102,720,175
353,962,4533,70,697,147
356,748,4591,39,690,148
412,804,4628,35,694,183
473,934,4712,44,707,200
473,1033,4789,31,743,202
473,1033,4789,31,743,202
491,1269,4807,26,794,201
525,1377,4812,49,845,159
499,1208,4809,59,911,110
423,1120,4785,50,980,115
367,1330,4730,60,1045,142
262,1557,4582,60,1104,140
131,1683,4417,21,1135,128
37,1875,4353,-33,1141,113
-46,2046,4260,-83,1135,74
-145,1998,4141,-168,1121,23
-263,1817,4006,-257,1095,-10
-382,1784,4023,-332,1060,-13
-451,2074,4056,-353,1043,-18
-489,2296,4001,-404,1044,-63
-574,2130,3760,-494,1052,-135
-654,1842,3552,-607,1024,-173
-784,1729,3506,-706,976,-175
-842,1774,3426,-753,944,-186
-859,1709,3381,-810,919,-214
-920,1656,3284,-822,895,-251
-969,1581,3230,-849,869,-284
-1050,1545,3097,-868,852,-327
-1139,1433,2932,-880,830,-392
-1264,1216,2689,-879,784,-452
-1375,1043,2491,-872,697,-491
-1428,912,2422,-835,579,-520
-1437,817,2444,-816,456,-545
-1430,780,2513,-812,345,-568
-1411,748,2536,-808,245,-598
-1454,503,2423,-836,155,-632
-1575,383,2252,-896,36,-626
-1518,479,2242,-925,-116,-621
-1456,368,2392,-922,-280,-666
-1408,140,2665,-976,-416,-688
-1318,-91,2854,-960,-509,-697
-1286,-277,2876,-904,-577,-692
-1262,-359,2815,-863,-653,-670
-1233,-349,2796,-823,-752,-657
-1105,-284,2861,-789,-858,-665
-943,-512,2965,-798,-955,-704
-845,-858,3128,-828,-1047,-710
-709,-764,3422,-819,-1123,-657
-607,-498,3611,-786,-1159,-635
-526,-641,3581,-765,-1171,-672
-513,-1258,3473,-760,-1198,-701
-461,-1648,3471,-700,-1248,-651
-281,-1693,3603,-591,-1290,-576
-191,-1811,3710,-550,-1307,-494
-149,-1824,3781,-534,-1317,-397
-40,-1788,3899,-433,-1313,-355
31,-2123,3951,-288,-1283,-359
106,-2383,3939,-139,-1250,-304
207,-2450,3984,-39,-1233,-193
274,-2525,4037,40,-1217,-68
371,-2470,4176,136,-1198,53
488,-2195,4439,263,-1165,146
539,-1815,4605,404,-1098,193
588,-1454,4569,491,-1023,212
664,-1563,4427,507,-980,204
722,-1954,4490,508,-977,230
852,-1895,4709,591,-970,312
972,-1690,4779,684,-916,382
1035,-1478,4731,752,-858,437
1133,-1318,4736,797,-811,478
1162,-1380,4883,838,-758,499
1132,-1303,4921,944,-680,539
1072,-870,4755,1066,-601,585
1058,-353,4628,1130,-553,593
1081,-324,4604,1117,-529,567
1064,-526,4628,1077,-503,579
1064,-526,4628,1077,-503,579
991,-369,4676,1087,-464,632
909,0,4571,1167,-410,650
851,228,4288,1200,-374,641
794,218,4124,1172,-384,634
776,311,4100,1140,-414,654
820,569,4157,1133,-437,660
807,572,4127,1134,-431,625
816,725,4100,1186,-428,593
870,871,4005,1216,-421,560
859,719,3907,1199,-426,534
878,852,3879,1171,-441,565
902,1016,3938,1169,-454,577
830,1238,3927,1207,-452,570
864,1537,3887,1251,-449,542
825,1459,3701,1260,-451,494
839,1666,3628,1194,-488,499
901,2371,4092,1137,-545,482
1002,2921,4385,1110,-520,367
1017,2643,4269,1059,-467,204
1003,2286,4076,933,-447,137
944,2240,4108,814,-466,144
868,2657,4044,753,-486,148
929,2872,3991,653,-526,94
978,2472,4150,515,-570,18
953,2311,4306,448,-576,-5
913,2573,4215,442,-551,-29
871,2566,4046,415,-545,-104
897,2527,4105,384,-572,-173
1022,2692,4268,359,-593,-230
1092,2600,4357,288,-589,-289
1096,2598,4321,208,-582,-313
1117,2521,4135,82,-586,-329
1139,2188,4217,-28,-619,-354
1153,2198,4343,-65,-624,-357
1181,2253,4193,-87,-600,-395
1220,2076,4081,-119,-601,-454
1270,1974,4171,-148,-615,-490
1324,1906,4242,-178,-614,-515
1358,1777,4222,-199,-604,-538
1387,1740,4229,-225,-595,-556
1450,1766,4322,-254,-584,-576
1510,1761,4423,-274,-558,-613
1525,1533,4357,-308,-515,-650
1506,1335,4183,-349,-491,-656
1524,1345,4247,-375,-502,-650
1632,1296,4383,-380,-497,-664
1714,1051,4406,-386,-469,-679
1766,897,4378,-397,-442,-659
1815,781,4393,-409,-420,-634
1833,715,4492,-410,-392,-619
1807,804,4603,-381,-345,-614
1806,870,4508,-339,-284,-637
1805,568,4338,-324,-248,-672
1808,315,4399,-326,-245,-660
1829,205,4496,-319,-231,-613
1905,95,4472,-301,-201,-564
1960,22,4624,-292,-177,-509
1986,114,4793,-262,-128,-456
1980,103,4757,-230,-61,-422
1963,57,4669,-207,-10,-388
1948,2,4675,-196,17,-354
1993,114,4789,-172,44,-315
2060,161,4899,-154,91,-299
2061,20,4937,-147,157,-284
2025,-59,4919,-129,225,-244
1940,-83,4832,-119,287,-187
1882,-23,4762,-109,332,-122
1839,80,4772,-86,369,-78
1839,80,4772,-86,369,-78
1808,194,4775,-48,411,-55
1791,309,4731,-12,453,-43
1772,364,4720,0,489,-30
1744,367,4763,3,522,-9
1669,392,4763,23,565,14
1607,387,4659,19,614,47
1543,434,4597,31,646,81
1479,581,4585,53,674,98
1392,727,4537,64,708,98
1324,931,4472,69,734,85
1276,881,4392,64,747,55
1226,552,4317,44,751,47
1153,416,4234,40,756,98
1096,636,4128,59,755,161
1072,849,4026,79,743,171
1080,842,4118,96,717,147
1117,975,4204,121,707,140
1183,925,4177,82,719,139
1185,649,4147,37,725,153
1183,866,4231,40,729,205
1159,1224,4167,50,757,216
1087,1158,4007,36,775,173
990,1004,3932,40,769,150
886,922,3774,32,760,156
813,800,3668,22,730,174
769,968,3705,27,688,207
756,1235,3860,40,661,209
743,1370,3813,66,662,166
706,1233,3719,54,649,124
674,1038,3782,9,628,128
623,1085,3839,-6,619,158
571,1290,3717,-2,621,170
527,1280,3574,-23,604,145
512,1172,3642,-31,568,119
505,1175,3684,-40,555,110
480,1228,3769,-57,547,110
441,1350,3777,-61,550,111
327,1267,3617,-81,556,96
214,1210,3460,-89,532,83
180,1136,3449,-84,485,67
147,1123,3521,-84,436,63
127,1178,3482,-100,401,70
116,1205,3469,-126,352,72
123,1260,3596,-140,297,63
120,1128,3654,-152,269,41
92,961,3604,-145,246,38
70,1060,3568,-140,212,57
68,1152,3576,-144,166,53
113,1122,3655,-145,116,24


375,1041,4512,95,628,98
348,1060,4515,99,649,111
335,1102,4481,103,674,123
280,1099,4397,92,698,129
224,1144,4334,90,705,136
214,1178,4327,74,705,131
233,1022,4318,66,713,115
209,901,4364,62,720,126
181,989,4413,66,736,160
155,1110,4375,69,764,178
114,1135,4339,67,779,175
76,1251,4378,72,788,174
51,1426,4355,69,811,163
40,1520,4394,60,825,130
-9,1458,4431,44,847,104
-70,1445,4414,38,870,107
-127,1581,4318,1,887,127
-147,1800,4231,-66,889,133
-148,1910,4266,-133,880,100
-160,1731,4347,-213,887,55
-208,1641,4366,-260,917,46
-308,1753,4237,-299,958,51
-409,1859,4098,-333,982,39
-497,1899,3994,-362,985,9
-573,1984,3933,-401,976,-17
-630,1981,3862,-438,966,-57
-680,1892,3736,-465,956,-100
-761,1930,3605,-509,938,-123
-853,2144,3494,-570,909,-143
-921,2204,3330,-659,878,-204
-1036,1929,3202,-760,838,-282
-1125,1725,3108,-819,790,-321
-1204,1707,3052,-859,740,-341
-1331,1727,2969,-875,696,-369
-1455,1764,2756,-903,653,-413
-1562,1685,2497,-947,586,-490
-1654,1368,2350,-972,486,-586
-1762,947,2313,-959,369,-656
-1859,901,2335,-909,245,-662
-1812,1098,2254,-853,129,-676
-1812,1098,2254,-853,129,-676
-1757,814,2141,-880,7,-740
-1787,362,2195,-968,-139,-744
-1781,318,2329,-1005,-287,-671
-1749,592,2446,-992,-412,-618
-1618,647,2400,-967,-523,-645
-1506,194,2360,-984,-653,-703
-1423,-281,2474,-1022,-805,-682
-1260,-230,2612,-1042,-948,-597
-1018,-120,2880,-1066,-1072,-570
-796,-292,3312,-1005,-1159,-619
-619,-593,3580,-944,-1177,-648
-500,-1019,3627,-925,-1163,-629
-456,-1171,3822,-886,-1163,-552
-441,-755,4069,-749,-1140,-481
-420,-407,3996,-605,-1079,-501
-432,-695,3813,-553,-1042,-565
-404,-1159,3739,-539,-1057,-557
-411,-1388,3693,-542,-1094,-464
-378,-1305,3658,-561,-1143,-355
-276,-1271,3780,-551,-1195,-314
-172,-1391,4003,-488,-1232,-304
-41,-1489,4211,-432,-1237,-268
74,-1711,4321,-353,-1207,-219
144,-1921,4266,-270,-1154,-143
170,-1882,4196,-212,-1114,-35
200,-1847,4153,-152,-1084,38
201,-2053,4168,-46,-1052,67
214,-1895,4271,135,-1019,103
353,-1448,4402,315,-979,110
477,-1528,4488,419,-936,81
573,-1645,4605,493,-902,120
593,-1433,4613,554,-861,215
617,-1129,4430,580,-830,291
709,-1204,4370,580,-835,319
769,-1567,4542,606,-841,355
792,-1445,4694,723,-808,431
840,-896,4670,868,-749,480
915,-609,4632,941,-701,467
983,-602,4697,956,-671,453
1029,-737,4776,956,-624,470
1009,-659,4763,1020,-559,509
966,-441,4483,1071,-494,547
937,-404,4259,1084,-476,562
914,-408,4395,1109,-491,584
932,-11,4511,1176,-474,628
944,164,4323,1201,-435,633
870,215,4238,1205,-432,639
833,702,4195,1199,-434,665
839,827,4005,1143,-436,641
772,638,3956,1078,-475,615
804,1023,4056,1028,-511,638
871,1059,4068,992,-524,602
873,789,3972,968,-531,577
845,823,3917,966,-545,602
863,1301,3884,988,-561,616
875,1639,4001,986,-580,565
870,1908,4025,964,-584,494
981,1814,3841,865,-594,420
1062,1395,4134,727,-636,385
1086,1541,4298,710,-616,393
1042,1714,4019,722,-564,363
989,1683,3762,716,-563,302
1027,1719,3787,716,-608,255
1076,1631,3886,684,-648,225
1118,1892,4073,646,-674,226
1176,2353,4142,614,-674,193
1171,2297,4025,540,-667,107
1153,2060,3945,460,-687,52
1153,2060,3945,460,-687,52
1159,1882,3946,405,-720,29
1163,1885,3939,359,-745,38
1217,2079,4001,321,-772,38
1253,2007,4092,284,-783,-1
1232,2033,4104,273,-779,-30
1216,2276,3962,271,-774,-65
1228,2345,3944,218,-799,-130
1288,2490,4130,171,-832,-199
1408,2625,4217,128,-832,-284
1498,2276,4135,53,-819,-380
1540,1838,4160,-32,-826,-410
1571,1857,4329,-87,-832,-386
1563,2128,4376,-107,-811,-382
1587,2222,4394,-125,-787,-435
1637,2044,4363,-123,-766,-507
1712,1969,4356,-113,-748,-553
1787,1915,4340,-155,-733,-587
1877,1740,4540,-161,-723,-627
1916,1724,4609,-146,-674,-650
1999,1528,4522,-248,-603,-653
2063,1342,4618,-252,-558,-661
2066,1447,4693,-215,-497,-655
2043,1590,4452,-214,-424,-676
2069,1186,4302,-234,-397,-740
2151,763,4415,-241,-395,-744
2246,827,4665,-238,-369,-690
2280,1153,4714,-219,-307,-669
2307,1235,4752,-262,-244,-697
2336,886,4826,-291,-182,-741
2309,647,4860,-279,-111,-733
2258,719,4734,-250,-37,-696
2257,594,4548,-243,6,-674
2291,329,4483,-260,12,-619
2350,302,4580,-305,8,-516
2417,397,4744,-349,31,-425
2450,440,4876,-352,88,-382
2407,434,4877,-334,170,-367
2354,417,4828,-283,252,-371
2301,320,4691,-265,324,-376
2279,165,4761,-271,369,-357
2229,208,4861,-228,427,-319
2133,245,4722,-196,502,-287
2038,168,4569,-181,553,-257
1993,135,4539,-157,579,-220
1923,131,4553,-125,605,-176
1906,312,4645,-46,637,-135
1882,593,4615,9,690,-121
1821,600,4561,-21,746,-122
1705,285,4417,-40,787,-115
1586,148,4288,-28,810,-60
1472,394,4226,17,818,2
1406,853,4040,50,816,21
1427,878,3964,11,781,-12
1468,544,4130,-31,737,-38
1482,357,4277,-72,733,4
1428,533,4339,-88,760,75
1396,927,4315,-49,796,97
1380,905,4264,-38,830,59
1318,675,4195,-53,857,50
1243,728,4098,-48,877,89
1139,758,3848,-29,879,111
1053,725,3733,-44,838,134
1026,748,3792,-34,787,150
1016,627,3847,4,761,149
981,624,3761,38,754,161
979,698,3764,47,734,179
966,811,3914,71,717,184
958,944,3947,60,735,189
958,944,3947,60,735,189
900,1064,3938,66,754,179
882,1154,3934,69,765,164
902,1060,3899,34,779,157
892,850,3860,-20,790,176
858,772,3816,-14,795,208
782,919,3607,17,792,238
747,1061,3543,46,758,227
737,1178,3703,72,720,196
741,1352,3757,40,710,175
723,1179,3705,-31,708,150
687,928,3700,-84,697,158
647,943,3804,-123,693,213
600,1227,3845,-152,707,260
540,1372,3807,-199,730,261
414,1374,3724,-203,745,235
297,1392,3539,-190,750,210
153,1245,3224,-189,721,176
75,1042,3055,-234,641,174
105,851,3138,-330,535,211
157,945,3430,-403,444,266
192,1342,3696,-424,405,295


912,732,4675,238,391,183
950,895,4737,254,448,153
934,793,4736,235,471,165
927,932,4746,209,501,204
927,932,4746,209,501,204
905,1147,4759,210,533,211
897,1216,4714,210,575,195
875,1218,4616,176,610,189
863,1122,4554,144,627,188
847,971,4479,123,636,202
848,1006,4500,113,643,237
845,1118,4570,117,664,251
831,1059,4608,144,709,238
782,1103,4595,196,769,234
739,1295,4485,222,823,238
724,1335,4466,216,855,220
675,1215,4473,206,897,204
562,1200,4343,180,947,220
459,1303,4174,166,975,239
354,1341,4049,193,979,225
258,1362,3982,193,968,217
212,1415,4009,176,956,212
130,1545,3994,172,954,201
36,1804,4005,148,953,183
8,2034,3988,153,953,126
-29,1876,3972,121,956,51
-57,1773,3909,96,958,20
-134,1769,3930,46,951,21
-213,1956,3984,39,947,28
-296,2185,3922,23,960,10
-359,2347,3818,-11,964,-34
-428,2501,3655,-55,948,-92
-470,2494,3580,-141,907,-154
-534,2355,3555,-238,858,-198
-632,2338,3450,-351,819,-205
-718,2364,3333,-466,774,-216
-764,2289,3220,-560,721,-253
-835,2199,3175,-633,670,-299
-864,2158,3069,-689,624,-346
-923,1888,2947,-758,570,-399
-1012,1606,2865,-829,498,-411
-1093,1492,2793,-860,425,-410
-1157,1360,2702,-859,358,-434
-1233,1358,2637,-830,285,-476
-1205,1537,2647,-788,205,-537
-1162,1417,2689,-801,126,-629
-1133,1135,2792,-858,53,-685
-1116,720,2802,-879,0,-707
-1189,361,2661,-897,-55,-673
-1290,502,2531,-884,-135,-604
-1343,984,2493,-857,-243,-599
-1304,1058,2488,-860,-355,-693
-1277,558,2404,-840,-473,-813
-1302,234,2333,-857,-614,-834
-1116,425,2313,-871,-770,-804
-921,-52,2392,-905,-937,-843
-830,-873,2598,-1002,-1093,-794
-614,-880,2945,-1047,-1218,-631
-339,-660,3492,-1040,-1296,-516
-226,-484,3882,-957,-1295,-472
-178,-14,3946,-941,-1239,-450
0,-37,3995,-969,-1191,-522
12,-905,4041,-849,-1158,-645
53,-1575,4061,-740,-1120,-613
118,-1814,4002,-633,-1086,-498
120,-1854,3998,-588,-1067,-366
86,-1778,4010,-504,-1049,-261
58,-1478,3984,-371,-1037,-198
157,-1534,3936,-279,-1029,-200
174,-2076,3978,-185,-1040,-197
265,-2128,4190,-79,-1051,-96
388,-1993,4324,72,-1033,-3
435,-1975,4402,159,-1005,79
435,-1975,4402,159,-1005,79
514,-1733,4501,265,-978,165
567,-1623,4528,378,-940,207
598,-1406,4552,479,-908,247
740,-999,4663,575,-882,270
847,-1130,4732,648,-846,254
900,-1408,4670,697,-796,298
949,-1201,4557,744,-761,406
962,-930,4485,781,-739,467
973,-1005,4495,850,-723,473
983,-1083,4501,955,-696,495
1004,-810,4503,1068,-663,547
1070,-369,4563,1151,-634,584
1117,-7,4674,1210,-594,584
1108,296,4709,1239,-543,571
1108,579,4647,1229,-497,569
1084,620,4524,1168,-477,572
1071,500,4362,1066,-480,612
1062,246,4216,987,-498,670
1040,46,4107,984,-513,738
1006,375,3928,1039,-524,801
1000,1144,4052,1063,-548,804
1145,1812,4459,1142,-555,681
1239,1627,4653,1191,-486,504
1258,1162,4389,1173,-402,432
1277,1032,4270,1102,-375,476
1204,1092,4244,1041,-355,542
1072,1339,4046,1065,-330,571
998,1748,3792,1089,-338,555
984,2215,3811,1067,-389,499
1033,2344,3850,1009,-435,415
1027,2022,3698,916,-472,353
1000,1717,3560,828,-533,359
969,1777,3512,763,-603,398
963,1991,3370,746,-666,398
1017,1912,3344,734,-748,367
1114,1889,3498,742,-824,361
1149,2223,3655,763,-858,369
1108,3114,3690,730,-866,350
1220,3875,3685,614,-878,224
1245,3082,3627,425,-897,4
1146,2416,3656,291,-916,-78
1122,2634,3587,313,-925,-121
1086,2862,3503,340,-955,-206
1158,3068,3623,311,-1012,-292
1286,2894,3784,254,-1060,-390
1444,2640,4022,179,-1087,-441
1573,2667,4123,127,-1076,-454
1671,2722,4088,71,-1057,-482
1784,2640,4144,-10,-1048,-518
1891,2589,4125,-107,-1033,-533
1955,2601,4123,-186,-1028,-553
2014,2496,4187,-220,-1025,-603
2113,2365,4323,-218,-1014,-659
2250,2276,4577,-228,-974,-705
2297,2040,4746,-229,-881,-753
2276,1942,4467,-155,-760,-785
2361,1716,4280,-89,-699,-825
2491,1470,4442,-80,-671,-838
2583,1300,4602,-98,-614,-814
2608,1196,4630,-169,-523,-756
2615,1365,4572,-181,-442,-716
2632,1411,4525,-266,-369,-707
2625,1231,4582,-357,-308,-724
2618,858,4572,-418,-242,-730
2630,620,4611,-491,-184,-675
2586,669,4684,-503,-121,-602
2573,735,4564,-506,-50,-557
2588,536,4563,-509,0,-547
2605,406,4703,-469,50,-521
2647,379,4748,-424,131,-483
2647,379,4748,-424,131,-483
2640,412,4676,-388,220,-443
2592,418,4654,-348,292,-416
2562,350,4643,-322,359,-387
2530,371,4642,-309,424,-335
2512,484,4636,-307,493,-283
2442,417,4554,-320,558,-248
2346,367,4566,-306,604,-207
2242,431,4620,-260,664,-167
2135,594,4545,-210,738,-130
2077,783,4462,-148,789,-117
2039,676,4393,-135,822,-121
1996,441,4450,-166,849,-87
1936,386,4497,-174,889,-13
1881,448,4434,-156,946,55
1819,502,4247,-138,992,99
1785,578,4237,-126,1007,131
1770,721,4253,-134,1023,156
1742,872,4285,-159,1046,168
1680,950,4225,-153,1071,161
1579,981,4123,-117,1082,146
1476,859,4022,-81,1081,130
1409,654,3868,-55,1069,138
1367,487,3829,-46,1040,183
1361,510,3941,-32,1013,247
1346,662,3996,-5,1014,299
1253,781,3827,-4,1037,334
1139,961,3669,-27,1027,361
1051,1025,3558,-54,992,360
941,1122,3675,-61,946,346
883,1413,3755,-16,931,316
809,1578,3612,26,925,252
817,1586,3449,7,886,202
844,1428,3576,-62,821,179
818,1311,3622,-121,785,196
807,1354,3552,-174,756,241
743,1520,3517,-221,719,273
683,1636,3522,-291,688,279
625,1642,3542,-301,664,242
571,1542,3460,-286,652,197
577,1357,3335,-306,631,173
595,1159,3437,-362,588,193
579,1199,3600,-395,571,238
526,1265,3597,-390,586,252
469,1278,3454,-348,604,230
427,1355,3397,-299,592,196
385,1335,3441,-297,568,162
323,1141,3426,-300,551,140
227,1128,3322,-288,526,140
173,1127,3289,-281,478,132
115,1130,3365,-263,427,116
42,1203,3434,-225,382,95
-4,1141,3314,-198,350,65
-49,959,3217,-187,285,43
-97,1009,3322,-168,200,45
-92,1222,3417,-122,132,27


109,1503,3771,33,1091,125
56,1581,3839,-37,1058,140
-13,1598,3985,-79,1046,137
-125,1962,3928,-80,1063,136
-146,2433,3694,-112,1069,88
-160,2084,3640,-239,1039,-18
-245,1452,3823,-362,1014,-58
-284,1322,3917,-347,1022,-17
-353,1569,3693,-382,1060,36
-424,1612,3611,-434,1064,31
-487,1635,3540,-409,1061,-1
-568,1684,3389,-447,1055,-19
-635,1700,3372,-490,1024,-48
-704,1544,3284,-474,992,-104
-840,1456,3097,-534,950,-117
-916,1481,3103,-554,874,-130
-992,1474,3173,-549,810,-166
-1085,1542,3160,-548,772,-200
-1160,1619,3076,-565,732,-242
-1228,1445,3026,-581,676,-304
-1332,1401,2979,-597,611,-332
-1354,1532,2927,-623,540,-354
-1382,1316,2905,-686,458,-413
-1480,960,2980,-742,371,-435
-1577,1028,3005,-736,299,-411
-1637,1481,3021,-730,221,-403
-1536,1790,3018,-728,135,-481
-1454,1265,2964,-791,49,-622
-1480,546,3009,-865,-47,-666
-1444,507,3190,-855,-149,-597
-1387,958,3338,-826,-218,-550
-1328,1172,3269,-836,-264,-597
-1315,943,3181,-919,-332,-669
-1223,674,3251,-968,-428,-710
-1105,347,3328,-988,-506,-727
-1078,-90,3289,-1005,-572,-707
-1055,-269,3311,-1043,-649,-622
-1000,10,3510,-1071,-717,-535
-935,288,3688,-996,-746,-551
-908,171,3639,-903,-747,-630
-894,-112,3531,-902,-766,-670
-913,-359,3420,-985,-810,-646
-919,-715,3471,-1064,-872,-601
-970,-977,3569,-956,-933,-574
-958,-850,3660,-805,-969,-526
-958,-850,3660,-805,-969,-526
-869,-665,3531,-693,-980,-513
-760,-787,3340,-655,-1025,-531
-631,-1303,3458,-676,-1110,-521
-506,-1621,3704,-660,-1172,-451
-360,-1600,3938,-592,-1191,-363
-274,-1456,4018,-489,-1178,-310
-211,-1387,4068,-404,-1154,-296
-196,-1455,4053,-286,-1138,-295
-137,-1440,3928,-212,-1143,-257
19,-1591,4045,-188,-1177,-214
184,-1608,4415,-126,-1197,-157
316,-1649,4706,-57,-1152,-90
352,-1416,4683,55,-1072,-21
443,-1231,4558,126,-1009,8
498,-1418,4505,163,-975,13
575,-1450,4567,232,-955,49
682,-1396,4612,308,-919,79
756,-1535,4586,376,-875,93
811,-1729,4516,428,-830,139
851,-1809,4467,481,-794,224
849,-1825,4440,564,-760,300
847,-1742,4434,683,-720,365
842,-1342,4451,840,-679,416
886,-870,4398,974,-640,425
923,-903,4313,1026,-615,407
911,-996,4332,1043,-610,448
902,-655,4401,1055,-604,534
922,-270,4421,1062,-594,578
896,-247,4370,1059,-583,580
869,-62,4304,1034,-574,608
883,-28,4200,990,-571,614
846,-396,4092,972,-581,616
842,-368,3954,1018,-596,667
866,-159,3891,1078,-623,708
867,265,3939,1125,-662,731
958,753,4030,1146,-690,717
1133,639,4127,1128,-700,660
1162,38,4169,1098,-683,655
1109,200,3991,1104,-654,758
1022,867,3891,1135,-647,807
938,1759,3944,1201,-654,742
1049,2217,4024,1216,-659,567
1178,1604,4118,1112,-659,395
1207,900,4233,1010,-645,374
1168,979,4150,961,-620,475
1095,1448,3926,926,-611,546
1059,1651,3807,894,-638,527
1075,1538,3909,897,-683,479
1070,1625,3885,910,-714,463
1106,2441,4000,865,-756,466
1254,3125,4267,826,-788,344
1308,2756,4262,730,-775,151
1392,2369,4250,607,-766,55
1447,2268,4285,554,-765,13
1405,2218,4188,488,-753,3
1380,2127,3941,428,-760,5
1368,2141,3829,356,-808,18
1337,2363,3944,291,-869,14
1381,2748,4111,249,-900,-36
1517,2988,4183,212,-907,-150
1607,2650,4258,132,-901,-287
1593,2333,4308,68,-880,-360
1541,2325,4185,48,-849,-396
1566,2404,3985,30,-840,-446
1634,2122,3940,2,-870,-515
1679,1854,4061,-50,-904,-525
1760,1755,4137,-104,-910,-499
1827,1820,4215,-152,-898,-474
1939,2135,4328,-173,-869,-482
1939,2135,4328,-173,-869,-482
2106,2126,4450,-182,-820,-564
2240,1832,4576,-135,-753,-652
2290,1805,4404,-161,-665,-682
2354,1804,4540,-265,-604,-704
2389,1752,4707,-234,-527,-764
2440,1669,4595,-205,-429,-813
2468,1248,4386,-273,-366,-826
2450,851,4393,-390,-342,-771
2474,763,4586,-485,-311,-680
2495,803,4672,-520,-251,-610
2468,993,4690,-542,-177,-575
2456,962,4626,-569,-103,-591
2487,614,4639,-572,-42,-625
2486,485,4796,-550,19,-619
2479,421,4759,-517,110,-601
2393,198,4534,-458,184,-588
2375,276,4424,-408,217,-550
2406,249,4463,-413,231,-520
2433,166,4569,-424,252,-482
2488,296,4738,-420,300,-435
2483,189,4761,-416,378,-413
2446,-115,4644,-401,464,-378
2340,-217,4591,-354,529,-310
2188,170,4552,-282,584,-233
2054,536,4379,-201,632,-224
2015,426,4263,-173,649,-265
2002,14,4370,-171,648,-277
1942,-146,4511,-132,674,-220
1870,75,4438,-68,726,-138
