acc_X,acc_Y,acc_Z,gyro_X,gyro_Y,gyro_Z
1129,-826,6123,322,568,-350
1242,-783,5943,451,652,-345
1272,-554,5706,508,736,-312
1347,-465,5456,572,802,-314
1450,-514,5400,673,857,-328
1516,-421,5250,785,933,-324
1537,-348,4947,804,1028,-304
1488,-346,4657,723,1108,-262
1325,-255,4339,644,1162,-215
1034,-338,3884,616,1186,-197
705,-428,3252,537,1137,-172
511,-743,3285,389,1003,-113
416,-845,3503,267,927,22
253,-746,3339,179,922,172
85,-460,2955,141,895,297
-35,-258,2804,116,807,358
-157,-353,2815,110,711,379
-275,-533,2811,145,634,432
-275,-533,2811,145,634,432
-344,-666,2858,170,577,532
-418,-678,2741,130,545,684
-589,-503,2461,110,491,843
-826,-549,2215,134,376,950
-955,-933,2203,129,225,1070
-998,-1064,2218,104,88,1291
-1059,-900,2131,124,-41,1529
-1089,-235,2041,200,-191,1701
-1161,1057,1914,277,-356,1720
-1208,2000,1888,406,-555,1510
-1129,1972,2004,488,-760,1193
-972,1547,2201,483,-939,958
-746,1374,2432,446,-1079,851
-524,1392,2510,341,-1180,822
-484,1412,2377,192,-1286,835
-447,1500,2372,47,-1442,859
-270,1929,2825,-61,-1626,880
-107,2602,3271,-61,-1749,841
18,3316,3346,-140,-1794,716
201,3896,3679,-247,-1854,462
376,3753,3974,-221,-1894,59
492,3255,4349,-233,-1891,-296
611,2957,4790,-251,-1841,-514
699,2892,4961,-253,-1739,-637
789,2996,5395,-212,-1651,-711
947,3050,5422,-192,-1541,-762
1206,2807,5298,-256,-1481,-794
1467,2518,5609,-436,-1474,-767
1708,2538,6197,-677,-1433,-685
1811,2567,6950,-892,-1317,-641
1805,2592,7176,-895,-1101,-682
1835,2353,7000,-826,-860,-824
1904,1871,6899,-737,-657,-995
2063,1362,6996,-588,-477,-1122
2338,867,7048,-402,-267,-1185
2592,448,6787,-278,-26,-1147
2680,65,6522,-278,187,-1034
2663,-280,6420,-346,388,-902
2543,-471,6269,-397,598,-771
2344,-518,6017,-324,790,-681
2121,-550,5697,-173,957,-654
1911,-601,5689,-18,1097,-661
1740,-611,5138,98,1252,-704
1560,-1029,4944,215,1319,-761
1491,-1277,5078,316,1402,-720
1391,-1306,4816,379,1531,-622
1190,-1036,4278,406,1620,-505
867,-568,3498,455,1609,-437
654,-347,3156,494,1444,-457
648,-658,3608,474,1249,-494
676,-752,3958,463,1180,-428
560,-365,3606,486,1179,-338
410,102,3356,465,1113,-315
283,189,3484,428,1034,-333
315,223,3566,380,1006,-327
286,425,3551,297,1000,-296
89,554,3259,247,1001,-284
-172,530,3183,293,965,-295
-366,561,2659,312,946,-302
-586,435,1726,132,775,-317
-697,-149,2336,-22,466,-287
-623,-17,2619,-68,330,-148
-593,47,2271,-74,223,-64
-488,16,2479,-144,65,-3
-451,-98,2642,-228,-25,54
-465,-75,2490,-239,-108,119
-446,160,2501,-250,-224,171
-428,214,2509,-249,-343,177
-447,225,2373,-268,-476,183
-447,225,2373,-268,-476,183
-493,211,2233,-324,-646,193
-446,153,2304,-374,-856,198
-307,81,2480,-418,-1061,216
-81,148,2786,-462,-1232,254
121,200,2986,-500,-1356,290
262,339,3108,-519,-1460,323
342,486,3306,-506,-1563,318
418,372,3523,-492,-1645,274
513,218,3607,-452,-1686,243
675,92,3747,-419,-1727,235
820,8,4074,-415,-1752,247
856,-63,4341,-406,-1710,278
763,153,4200,-346,-1626,318
774,335,3876,-256,-1595,290
965,244,4051,-215,-1634,224
1064,154,4219,-182,-1640,195
1238,-88,4265,-128,-1621,189
1423,-64,4316,-123,-1600,254
1425,192,4235,-153,-1580,331
1408,237,4347,-240,-1581,361
1369,-11,4439,-296,-1563,349
1389,-444,4230,-249,-1524,340
1499,-319,4512,-146,-1515,361
1579,-145,4531,41,-1462,318
1655,-93,4223,165,-1415,264
1817,-330,4375,94,-1387,254
2022,-383,4831,71,-1336,291
2176,-591,5123,205,-1189,327
2247,-556,4899,422,-1033,404
2158,-384,4854,544,-933,481
2099,-288,4528,657,-865,530
2190,-127,4571,681,-862,569
2273,-296,4781,665,-824,590
2343,-487,4471,708,-741,625
2502,-368,4530,779,-702,656
2643,96,4874,855,-627,647
2743,641,5031,955,-472,568
2816,598,4996,1046,-311,437
2812,384,5062,1099,-171,388
2714,333,4803,1118,-18,439
2636,494,4615,1091,63,527
2636,542,4622,1065,111,592
2592,818,4336,1088,155,641
2649,895,4318,1073,158,629
2800,971,4804,1011,175,620
2887,1263,5158,967,285,639
2948,1534,5138,940,456,642
3022,1729,5319,885,624,603
3020,1681,5639,879,822,528
3013,1549,5696,876,1089,490
2996,1618,5581,827,1367,512
2848,1954,5126,797,1618,543
2664,2217,4689,791,1781,511
2459,2150,4282,844,1861,433
2258,2158,3998,886,1855,389
2016,2204,3806,857,1817,360
1794,2199,3174,774,1751,346
1687,1962,2810,598,1582,334
1572,1669,2920,373,1370,353
1476,1596,3118,148,1212,419
1398,1685,3189,-18,1112,469
1246,1926,3002,-65,1035,445
968,1837,2450,-34,919,328
808,1567,2206,-73,706,205
790,1150,2586,-155,467,117
838,824,2907,-205,315,109
928,825,3005,-232,223,154
1042,1067,3052,-302,146,189
1087,1008,3254,-388,72,174
1087,1008,3254,-388,72,174
1111,878,3475,-429,23,168
1110,893,3497,-420,5,170
1103,799,3424,-397,-25,165
1137,776,3463,-401,-79,168
1175,818,3648,-414,-135,167
1278,808,3976,-392,-162,140
1340,630,4042,-352,-131,112
1347,597,3887,-339,-98,118
1300,661,3868,-327,-108,113
1232,711,3909,-297,-129,82
1200,669,3913,-277,-149,45
1210,632,3906,-255,-178,24
1232,621,3954,-248,-224,28
1252,660,4091,-256,-269,48
1284,715,4184,-267,-284,59
1322,688,4261,-255,-282,57
1373,775,4396,-225,-270,53
1448,774,4418,-186,-233,32
1548,655,4394,-174,-183,12
1589,591,4367,-179,-137,9
1551,536,4302,-176,-101,8
1514,571,4280,-153,-76,1
1452,605,4200,-132,-53,-16
1389,590,4089,-133,-47,-35
1347,564,4017,-151,-63,-43
1315,541,3978,-165,-95,-49
1315,518,3968,-170,-128,-44
1356,515,3970,-171,-155,-32
1402,560,4026,-168,-182,-23
1397,607,4152,-169,-196,-11
1341,644,4229,-156,-188,-12
1315,653,4215,-122,-166,-32
1275,640,4170,-85,-141,-63
1238,567,4070,-53,-119,-102
1253,479,3957,-53,-109,-126
1277,500,3977,-73,-121,-124
1300,564,4062,-82,-129,-125
1398,569,4082,-94,-115,-137
1482,440,4035,-145,-87,-126
1527,433,3970,-209,-70,-78
1560,444,3975,-262,-75,-34


761,-210,5045,599,779,-247
617,-397,4618,624,837,-245
634,-506,4697,612,824,-234
713,-547,4894,649,838,-219
687,-465,4707,643,906,-171
618,-329,4462,579,943,-124
546,-335,4384,512,936,-108
488,-471,4413,435,932,-85
372,-476,4338,400,942,-32
218,-478,4197,375,953,12
68,-718,4126,383,954,40
-54,-947,4093,403,960,108
-187,-1018,4026,460,974,205
-256,-1016,3779,536,993,316
-324,-745,3638,550,980,442
-420,-171,3409,552,951,523
-483,15,3181,555,889,507
-480,-128,3131,553,797,473
-443,-350,3078,510,710,495
-451,-231,2986,468,626,574
-492,34,2863,453,531,620
-488,-138,2902,430,429,610
-468,-508,2966,405,343,653
-446,-566,3017,394,279,784
-521,-194,2971,407,233,927
-674,445,2638,454,179,1006
-786,967,2278,481,69,1002
-826,1081,2299,415,-105,966
-841,870,2413,310,-280,964
-832,755,2509,186,-440,1024
-745,963,2622,81,-586,1095
-644,1160,2707,18,-719,1103
-636,1227,2686,-23,-845,1080
-651,1606,2596,-49,-983,1048
-702,2155,2442,-36,-1144,926
-761,2387,2196,-73,-1340,724
-640,2211,2225,-248,-1571,549
-419,1842,2506,-500,-1796,472
-221,1778,2721,-763,-1983,504
-48,2059,2679,-972,-2149,546
36,2325,2633,-1127,-2357,507
213,2320,3312,-1265,-2595,377
564,2416,4456,-1343,-2709,221
938,2608,5618,-1262,-2617,9
1134,2601,6293,-1075,-2346,-254
1158,2456,6001,-906,-1990,-484
1131,2164,5416,-817,-1755,-653
1212,1965,5359,-812,-1658,-752
1452,1737,5853,-856,-1590,-803
1584,1540,6215,-923,-1449,-796
1631,1399,6238,-969,-1272,-755
1800,1185,6538,-946,-1120,-731
1975,1162,6711,-887,-935,-693
2147,1373,6891,-786,-716,-698
2273,1392,6776,-657,-470,-797
2417,1219,6702,-548,-249,-932
2505,955,6590,-462,-22,-1061
2547,367,6262,-391,196,-1153
2519,-287,6155,-361,371,-1143
2519,-287,6155,-361,371,-1143
2362,-672,5857,-356,551,-1020
2202,-751,5529,-286,686,-856
2140,-623,5470,-188,774,-714
2093,-732,5504,-112,885,-629
2043,-989,5522,-1,1046,-577
2079,-1225,5624,161,1238,-535
2025,-1259,5456,350,1480,-496
1887,-1238,4870,543,1704,-485
1759,-1160,4637,687,1833,-484
1668,-976,4266,842,1950,-484
1442,-1244,3485,952,1940,-532
1229,-1618,3605,1107,1789,-505
1077,-1307,3671,1106,1716,-351
855,-754,3510,1011,1666,-245
614,-355,3188,857,1597,-214
519,-133,3304,702,1472,-229
384,-133,3550,630,1382,-271
184,75,3240,608,1341,-290
-19,67,2939,606,1238,-329
-256,-112,2731,541,1089,-316
-397,47,2778,459,907,-240
-458,181,2888,404,753,-190
-461,121,2910,328,639,-137
-437,20,2984,221,541,-67
-423,234,3189,147,467,1
-434,641,3147,180,432,8
-579,593,2718,185,385,-30
-737,251,2498,116,259,-32
-877,275,2430,35,100,31
-943,553,2428,-18,-71,77
-879,761,2444,-67,-254,61
-755,560,2819,-159,-434,16
-657,240,3034,-243,-540,35
-612,98,2930,-313,-626,120
-568,436,2852,-397,-742,220
-430,406,2906,-462,-879,230
-234,120,3276,-495,-1005,224
-110,124,3446,-444,-1062,243
-40,437,3438,-377,-1103,247
60,598,3481,-311,-1158,192
111,537,3398,-286,-1216,131
241,330,3514,-305,-1293,105
370,49,3684,-383,-1340,141
389,-105,3750,-437,-1362,219
407,18,4034,-416,-1360,276
413,201,4040,-307,-1308,253
493,425,3858,-164,-1295,182
712,379,4086,-82,-1335,85
959,125,4505,-35,-1327,41
1124,9,4467,15,-1232,76
1126,-5,4235,-10,-1131,144
979,-201,3865,-12,-1092,214
870,83,3602,29,-1161,295
896,257,3869,19,-1277,300
962,241,4259,27,-1336,270
1083,251,4543,69,-1329,240
1224,360,4725,95,-1279,238
1284,465,4669,94,-1197,240
1348,271,4518,93,-1136,217
1492,-91,4579,94,-1104,225
1544,-204,4627,101,-1051,305
1538,-50,4397,133,-994,394
1617,-71,4433,174,-989,428
1641,-153,4440,209,-974,452
1625,-34,4237,245,-970,468
1739,-177,4367,230,-985,434
1894,-325,4791,260,-961,414
2004,-275,4969,392,-824,406
2128,166,4857,588,-699,375
2128,166,4857,588,-699,375
2211,482,4897,719,-617,308
2283,565,4914,776,-549,274
2339,639,4840,750,-496,298
2326,567,4875,656,-451,341
2273,379,4857,602,-406,388
2176,279,4653,571,-357,450
2148,284,4651,542,-333,506
2144,343,4726,540,-297,534
2143,464,4696,576,-247,536
2257,350,4920,605,-195,518
2380,479,5242,653,-93,532
2425,844,5154,716,70,539
2426,901,4998,774,192,499
2480,995,5107,765,291,492
2482,1186,4920,751,401,504
2413,1403,4663,710,452,516
2475,1450,5066,616,459,516
2549,1270,5465,562,556,524
2525,1296,5463,576,726,563
2421,1654,5194,643,901,567
2380,1944,4890,702,1032,499
2393,1913,4726,701,1109,420
2387,1923,4504,656,1167,373
2234,1917,4149,564,1196,334
2078,1839,4147,475,1174,278
1901,1623,4027,426,1180,238
1611,1499,3389,386,1174,242
1392,1642,3068,297,1065,252
1331,1547,3326,175,927,224
1263,1327,3387,93,860,213
1146,1449,3042,42,815,243
1046,1619,3012,-16,713,221
1003,1365,3265,-71,622,160
949,1219,3217,-89,584,143
854,1327,3028,-102,533,144
779,1259,2941,-149,444,121
793,1020,3065,-216,345,105
861,916,3210,-259,265,125
892,1034,3275,-301,205,162
870,1176,3182,-339,146,174
885,1084,3272,-373,68,146
931,952,3443,-389,4,119
921,846,3482,-387,-27,103
916,720,3540,-388,-64,92
952,695,3722,-368,-96,82
1003,734,3835,-306,-103,50
1059,680,3924,-232,-102,1
1122,622,3949,-188,-96,-22
1161,620,3906,-188,-98,-14
1172,648,3961,-207,-120,4
1164,693,3964,-234,-139,14
1178,638,3975,-267,-171,12
1223,586,4072,-297,-211,15
1339,548,4309,-306,-240,19
1435,567,4512,-279,-230,25
1493,666,4483,-230,-195,24
1494,698,4382,-204,-173,8
1443,639,4368,-214,-165,-2
1389,660,4437,-204,-158,-9
1366,715,4407,-159,-129,-36
1344,619,4298,-134,-100,-70
1311,496,4249,-138,-91,-77
1315,494,4332,-154,-86,-68
1329,503,4398,-153,-59,-63
1285,469,4342,-120,-19,-66
1254,530,4254,-88,6,-65
1236,502,4202,-82,21,-68
1178,471,4146,-79,31,-63
1145,529,4146,-83,34,-48
1145,529,4146,-83,34,-48


367,-929,4844,586,982,-40
447,-727,4754,612,1040,9
477,-743,4658,605,1100,39
438,-722,4617,588,1152,94
341,-586,4457,608,1208,138
184,-656,4064,656,1244,147
50,-794,3770,658,1225,166
-82,-974,3441,639,1180,196
-238,-1092,3141,601,1102,250
-388,-1121,2873,579,992,318
-460,-1159,2637,564,855,385
-411,-1225,2583,499,698,470
-323,-1193,2741,412,551,585
-231,-954,3066,379,447,698
-192,-661,3110,412,408,773
-245,-702,2917,420,387,831
-269,-735,2871,414,329,928
-379,-308,2883,425,278,1041
-588,767,2566,493,229,1067
-685,1508,2155,548,118,920
-681,1079,2159,483,-66,714
-654,467,2527,365,-257,657
-772,313,2503,263,-378,720
-931,317,2117,181,-513,822
-792,452,2202,135,-734,914
-595,473,2544,75,-931,975
-537,397,2618,4,-1057,1061
-516,927,2667,-89,-1182,1194
-383,2324,2827,-195,-1306,1231
-104,3040,3159,-251,-1414,1000
-104,3040,3159,-251,-1414,1000
141,2560,3558,-260,-1479,643
203,1855,3892,-282,-1482,395
88,1501,3885,-296,-1438,284
-120,1597,3423,-251,-1417,251
-284,1815,3061,-258,-1493,197
-264,1847,3022,-367,-1645,123
-61,1652,3273,-543,-1821,76
215,1465,3664,-698,-1970,73
528,1744,3930,-831,-2070,110
814,2079,4234,-898,-2145,54
1081,2273,4838,-898,-2190,-106
1172,2557,6088,-938,-2144,-310
1116,2427,6805,-855,-1868,-566
1065,1805,6157,-692,-1494,-755
1117,1653,5615,-611,-1316,-796
1219,1662,5528,-668,-1275,-791
1412,1472,5876,-733,-1266,-803
1559,1307,6105,-765,-1205,-794
1793,1332,6044,-781,-1113,-777
2010,1153,6046,-798,-1033,-807
2168,804,6011,-839,-943,-819
2322,529,6111,-890,-847,-795
2538,495,6665,-871,-708,-770
2731,479,6865,-773,-444,-778
2767,348,6641,-669,-132,-802
2705,149,6548,-584,143,-828
2586,-147,6271,-493,413,-839
2304,-402,5536,-387,634,-820
2029,-420,4870,-292,717,-782
1925,-668,4796,-267,702,-753
1967,-1222,5036,-209,706,-701
2042,-1406,5376,-121,789,-565
2058,-1174,5525,0,951,-419
1967,-731,5092,108,1159,-332
1891,-901,4525,124,1282,-364
1926,-1348,5040,174,1327,-356
1915,-1019,5224,248,1500,-279
1656,-892,4588,414,1697,-294
1438,-1173,4601,640,1800,-353
1312,-1303,4433,813,1947,-345
1017,-886,3201,800,2020,-282
717,-970,3066,708,1847,-291
699,-1119,3886,643,1699,-237
658,-815,3820,637,1736,-134
394,-287,2948,626,1740,-89
214,-182,2806,568,1575,-153
117,-492,3125,495,1401,-215
40,-746,3310,446,1309,-197
-151,-654,3107,443,1262,-118
-514,-261,2185,481,1166,-53
-728,-70,1941,418,898,-62
-700,-186,2456,368,608,-95
-658,-392,2688,350,444,-84
-642,-252,2572,297,328,-12
-541,55,2611,208,191,49
-425,204,2914,118,60,68
-343,236,3201,88,-14,57
-375,189,3076,108,-51,33
-469,159,2875,126,-127,25
-501,216,2847,83,-247,47
-455,224,2967,-22,-375,91
-318,305,3298,-127,-487,135
-223,558,3458,-172,-551,155
-197,602,3394,-240,-598,143
-195,458,3326,-326,-670,141
-136,486,3329,-401,-768,161
-84,505,3333,-493,-867,169
-90,250,3445,-557,-973,156
-129,-58,3539,-541,-1060,154
-129,-58,3539,-541,-1060,154
-109,-174,3473,-499,-1123,178
16,-168,3435,-481,-1191,205
164,-45,3555,-466,-1266,213
296,85,3663,-422,-1320,184
488,75,3755,-393,-1355,135
624,26,3834,-393,-1377,109
711,24,4072,-394,-1395,105
769,-17,4147,-414,-1379,122
799,-99,4172,-412,-1359,141
755,-218,4304,-374,-1332,139
703,-477,3926,-273,-1270,121
711,-404,3604,-172,-1275,123
795,-185,3595,-82,-1334,98
952,-36,3873,-34,-1386,45
1131,-3,4253,-51,-1396,6
1280,-85,4518,-65,-1345,0
1417,-220,4582,-39,-1262,10
1431,-161,4398,-22,-1170,61
1377,-15,3962,-10,-1126,102
1393,-311,3888,-2,-1174,94
1415,-646,3977,-8,-1228,130
1502,-334,4165,-42,-1257,212
1656,-64,4469,-93,-1247,219
1786,-57,4927,-144,-1172,177
1826,-439,4780,-39,-1044,134
1847,-624,4482,92,-974,165
1860,-646,4372,147,-961,249
1901,-645,4551,190,-956,319
1943,-668,4684,262,-900,357
1977,-615,4560,338,-811,384
2064,-465,4438,403,-748,403
2134,-502,4375,463,-715,410
2152,-726,4329,514,-681,434
2285,-637,4365,593,-655,478
2516,-386,4876,655,-601,478
2671,-74,5259,733,-460,442
2763,-88,5179,816,-281,399
2752,-137,5033,836,-151,428
2721,24,5007,790,-59,506
2588,230,4851,765,6,560
2491,425,4706,763,66,550
2412,226,4419,773,85,498
2438,69,4681,752,67,497
2452,129,4925,760,109,539
2502,399,4798,797,195,583
2599,590,4760,798,256,585
2718,726,5030,739,326,571
2793,920,5307,686,453,545
2717,1072,5357,682,627,499
2553,1305,4960,696,791,470
2374,1401,4412,670,844,439
2215,1390,4214,570,780,423
2162,1421,4442,473,694,417
2186,1478,4592,387,667,414
2199,1409,4639,276,693,417
2109,1287,4675,191,755,424
1999,1324,4458,143,842,429
1884,1324,4238,89,911,414
1643,1300,3614,51,948,396
1493,1429,3236,8,866,373
1536,1330,3771,-62,736,305
1535,1120,4150,-77,738,243
1387,997,3742,-46,817,213
1236,932,3343,-50,815,199
1075,740,3151,-102,748,196
903,853,2556,-152,635,221
843,804,2495,-238,408,199
908,515,3184,-341,207,168
1018,551,3575,-365,148,183
1018,551,3575,-365,148,183
1109,758,3517,-333,150,175
1147,727,3479,-307,135,111
1165,445,3635,-293,118,38
1170,178,3685,-269,127,15
1226,143,3696,-260,131,43
1174,196,3631,-263,121,74
1071,272,3501,-261,84,79
1026,186,3467,-249,17,47
1027,40,3564,-240,-58,24
1113,106,3742,-224,-126,23
1199,266,3910,-212,-172,15
1257,259,3903,-212,-194,-9
1312,20,3961,-226,-230,-30
1416,28,4279,-239,-262,-10
1530,211,4560,-220,-247,8
1601,178,4560,-189,-186,0
1574,27,4427,-187,-137,-1
1572,-46,4420,-203,-119,21
1573,-99,4487,-222,-101,53
1599,-11,4552,-201,-74,82
1637,101,4647,-148,-37,77
1634,159,4646,-85,18,45
1617,148,4531,-23,73,3
1523,56,4360,26,98,-27
1436,62,4191,60,95,-36
1439,52,4140,73,65,-40
1470,10,4177,73,33,-36
1480,55,4239,70,15,-19
1526,92,4326,71,14,-12


626,-967,4352,577,903,62
607,-876,4250,561,914,111
623,-945,4200,504,930,148
526,-1025,4095,424,954,218
364,-911,3849,415,972,289
257,-974,3588,446,957,323
207,-1179,3495,447,916,388
178,-1075,3413,437,875,496
100,-793,3223,472,827,572
-9,-667,2979,510,758,604
-110,-553,2740,482,660,645
-181,-262,2761,426,533,685
-182,-181,2836,405,430,673
-208,-412,2879,390,350,674
-207,-318,2752,388,292,731
-168,-314,2643,368,224,777
-230,-56,2832,324,142,852
-399,593,2778,322,93,885
-557,744,2640,382,18,800
-680,680,2655,407,-85,723
-798,855,2647,384,-193,706
-868,925,2620,360,-315,678
-823,804,2672,320,-453,670
-759,684,2698,232,-583,707
-660,914,2792,126,-721,774
-553,1279,2843,32,-862,798
-514,1636,2826,-79,-1006,784
-514,2320,2721,-176,-1170,718
-482,2443,2485,-313,-1356,516
-429,1633,2452,-484,-1580,302
-390,926,2574,-657,-1796,243
-259,886,2895,-823,-1983,274
-79,1315,3270,-941,-2121,278
179,1805,3642,-1009,-2209,177
571,1997,4327,-990,-2264,-15
815,1677,4645,-895,-2232,-217
932,1382,4612,-892,-2174,-305
1083,1592,5228,-944,-2154,-323
1145,2108,6089,-957,-2048,-405
1148,2151,6206,-886,-1816,-600
1244,1681,5890,-846,-1599,-784
1475,1382,6305,-862,-1464,-862
1600,1088,6658,-756,-1274,-893
1700,889,6251,-654,-1052,-856
1931,853,6229,-610,-935,-808
2223,656,6649,-625,-818,-766
2386,564,6761,-594,-622,-709
2416,684,6454,-558,-407,-681
2474,508,6151,-564,-244,-710
2475,-20,6208,-566,-124,-734
2446,-260,6326,-512,23,-701
2450,-253,6052,-438,213,-666
2386,-454,5854,-363,374,-666
2315,-720,5818,-288,524,-656
2240,-1167,5738,-147,686,-632
2161,-1287,5526,0,857,-554
2108,-1030,5571,134,1004,-476
2009,-947,5614,340,1185,-481
1898,-1139,5342,536,1412,-499
1774,-1282,4481,624,1557,-506
1616,-1416,4600,736,1561,-489
1467,-1133,4368,856,1637,-428
1319,-874,3821,940,1659,-424
1237,-1216,3635,957,1582,-457
1108,-1592,3818,970,1494,-396
1021,-1370,4085,1003,1477,-254
971,-782,3617,961,1534,-141
756,-304,3145,819,1465,-144
620,-397,3583,754,1333,-217
630,-570,3863,773,1316,-228
347,-526,3082,749,1335,-168
347,-526,3082,749,1335,-168
-31,-177,2388,663,1197,-120
-229,-63,2411,551,952,-136
-290,-138,2713,456,737,-151
-325,-41,2824,359,605,-135
-359,50,2708,282,492,-108
-369,39,2672,186,350,-79
-346,-83,2831,103,205,-45
-359,11,2883,60,96,5
-378,185,2809,15,-3,40
-296,47,2945,-33,-124,55
-246,216,3085,-74,-221,104
-326,584,2869,-94,-290,109
-472,595,2393,-154,-413,57
-494,509,2290,-295,-630,33
-393,314,2613,-473,-865,47
-213,102,3017,-624,-1035,98
-83,177,2976,-721,-1134,182
-41,413,2866,-809,-1260,224
105,239,3303,-871,-1419,170
307,87,3932,-813,-1495,111
423,-61,3912,-671,-1449,60
540,-392,3700,-573,-1404,37
521,-750,3569,-475,-1404,57
507,-749,3406,-393,-1417,131
645,-545,3426,-339,-1461,191
773,-510,3401,-321,-1514,212
894,-611,3253,-309,-1584,219
1108,-625,3368,-318,-1685,239
1273,-422,3888,-338,-1756,248
1326,-435,4233,-301,-1727,189
1424,-527,4285,-203,-1649,119
1583,-417,4649,-66,-1573,78
1690,-364,4577,59,-1439,49
1773,-476,4219,111,-1341,58
1826,-415,4140,98,-1318,123
1837,-392,4131,48,-1313,181
1907,-762,4329,31,-1303,204
1923,-753,4215,99,-1247,254
1889,-179,4028,155,-1214,276
2078,2,4286,170,-1224,200
2287,-224,4709,154,-1199,132
2297,-325,4598,96,-1099,157
2290,-311,4451,37,-1042,217
2321,-564,4895,20,-966,253
2262,-753,4692,212,-848,282
2194,-577,4406,416,-780,329
2245,-273,4288,533,-767,361
2358,-145,4484,571,-772,356
2446,-13,4524,573,-736,363
2564,136,4536,564,-705,361
2724,78,4849,541,-671,357
2847,32,5114,558,-582,392
2903,-33,5188,600,-436,447
2999,0,5349,632,-275,521
3042,68,5421,664,-90,584
3060,166,5562,697,101,632
3088,586,5702,769,318,665
3014,739,5360,898,538,620
3000,465,5014,985,687,571
2999,509,4906,1011,782,591
2946,911,4635,1044,855,620
2977,1168,4663,1012,873,596
3024,989,4907,897,919,568
2918,969,4884,770,1022,609
2703,1202,4608,643,1115,658
2568,1276,4551,497,1154,672
2424,1305,4474,331,1202,680
2182,1262,3718,231,1236,676
2182,1262,3718,231,1236,676
2053,1220,3551,135,1122,663
2011,1251,4239,69,1005,626
2020,1380,4518,99,1055,569
1986,1342,4272,164,1162,477
1817,1250,4005,172,1224,412
1557,1200,3389,150,1227,375
1389,1066,3088,51,1121,343
1240,770,3272,-68,971,334
1061,802,3278,-130,871,365
920,853,3063,-197,781,360
880,722,3072,-280,658,332
954,584,3428,-350,539,318
1047,638,3715,-366,488,315
1091,640,3769,-364,502,270
1067,367,3652,-382,535,210
966,406,3314,-365,526,194
875,513,3201,-328,436,140
846,408,3469,-278,323,51
806,225,3518,-222,251,-1
800,143,3409,-206,174,-6
851,70,3468,-216,72,-1
936,-51,3686,-226,-17,2
987,-126,3870,-213,-66,19
1029,-104,3841,-164,-82,29
1007,-92,3751,-125,-108,27
1034,-4,3785,-103,-156,21
1158,22,3979,-84,-200,-3
1233,-8,4166,-74,-210,-31
1280,9,4236,-77,-194,-36
1264,-50,4154,-76,-175,-39
1234,-68,4047,-71,-182,-37
1238,-38,4082,-57,-209,-42
1266,-1,4175,-27,-229,-62
1333,-13,4238,11,-233,-88
1374,-76,4295,23,-230,-92
1382,-7,4280,11,-218,-71
1419,79,4271,11,-214,-69
1476,105,4347,0,-212,-83
1509,151,4395,-30,-190,-86
1524,192,4330,-63,-161,-91
1497,186,4241,-100,-150,-94
1437,158,4187,-144,-155,-91
1398,129,4219,-174,-173,-89
1378,81,4289,-168,-186,-91
1362,22,4239,-127,-184,-92
1361,-62,4113,-88,-190,-84
1382,-163,4066,-79,-213,-53
1414,-186,4144,-81,-233,-3
1459,-95,4262,-87,-227,46
1474,43,4236,-84,-191,74
1457,160,4134,-80,-151,61
1416,171,4098,-75,-129,15
1399,124,4054,-70,-112,-29
1421,77,3993,-74,-101,-59
1488,72,3959,-115,-108,-60
1520,71,3974,-159,-124,-53
1566,32,4053,-173,-143,-55
1611,-97,4066,-195,-146,-46
1651,-237,4013,-227,-135,-11


675,-1084,4721,446,784,-75
637,-1019,4660,515,830,-60
578,-1062,4657,618,866,-88
498,-1132,4546,683,914,-91
412,-1182,4451,684,957,-55
366,-1161,4447,697,986,-7
340,-1179,4330,738,1025,30
327,-1138,4111,770,1049,76
276,-947,3864,752,1034,134
241,-867,3660,708,974,158
262,-1156,3645,632,888,172
258,-1423,3667,554,821,253
191,-1543,3449,468,781,381
88,-1716,3241,366,723,511
-1,-1819,3212,300,648,645
-94,-1559,3230,326,587,763
-265,-868,2913,415,543,819
-452,-377,2550,513,447,775
-585,-368,2296,555,288,684
-675,-581,2232,510,99,646
-635,-730,2374,462,-80,679
-499,-682,2536,477,-227,751
-401,-498,2515,507,-338,828
-319,-168,2497,488,-459,910
-186,368,2744,390,-587,985
-118,854,3027,288,-684,1012
-98,1664,3187,181,-733,980
-189,2252,3035,111,-764,791
-302,1719,2823,33,-850,515
-383,801,2658,-120,-979,393
-485,592,2491,-296,-1137,453
-539,867,2451,-392,-1337,504
-496,841,2626,-470,-1539,470
-315,561,2921,-566,-1697,440
-41,631,3309,-629,-1816,453
183,1229,3590,-678,-1878,479
460,1811,3904,-739,-1909,392
802,2008,4788,-778,-1915,185
769,2024,5890,-692,-1790,-58
617,1738,5380,-494,-1482,-291
444,1359,4423,-398,-1316,-427
352,1361,4322,-416,-1370,-467
352,1361,4322,-416,-1370,-467
360,1400,4465,-465,-1457,-502
498,1427,4522,-548,-1541,-552
884,1165,5013,-687,-1625,-622
1280,884,5615,-803,-1607,-654
1575,796,5838,-833,-1486,-667
1874,860,6171,-800,-1361,-700
2034,797,6661,-766,-1169,-766
2088,556,6659,-661,-915,-836
2206,467,6664,-526,-697,-875
2282,212,6627,-429,-502,-901
2293,-20,6442,-371,-334,-868
2358,-47,6610,-351,-209,-796
2459,-112,6705,-342,-50,-735
2533,-277,6409,-293,123,-697
2613,-505,6363,-234,256,-674
2739,-837,6536,-160,418,-651
2734,-1049,6551,-39,649,-603
2576,-960,6381,117,909,-557
2342,-1002,6066,288,1155,-548
2208,-1228,5723,425,1374,-516
2110,-930,4974,465,1507,-466
1837,-988,4838,570,1511,-496
1704,-1329,4717,676,1540,-511
1594,-1406,4511,683,1568,-446
1464,-1066,4193,616,1575,-351
1343,-848,3760,523,1520,-332
1258,-1019,3775,428,1394,-355
1258,-1406,4244,428,1306,-330
1349,-1476,4483,505,1339,-259
1222,-1486,4577,576,1439,-186
1035,-748,4989,730,1613,-91
749,239,3121,868,1831,-132
381,36,2142,677,1617,-325
227,-876,3223,492,1266,-396
194,-807,3590,422,1179,-257
109,-316,3264,412,1152,-160
44,-119,3105,382,1073,-157
-93,-457,2665,296,990,-171
-316,-665,2302,132,834,-103
-438,-559,2423,13,632,-25
-478,-660,2596,-2,484,4
-445,-955,2675,54,389,36
-457,-845,2609,106,332,118
-526,-414,2558,152,269,156
-596,-32,2539,228,190,111
-676,13,2361,278,94,34
-699,-87,2314,267,-51,0
-658,-42,2387,167,-221,35
-614,238,2554,26,-391,104
-601,687,2692,-74,-550,138
-544,847,2689,-185,-708,113
-290,561,2970,-364,-879,85
-62,315,3362,-524,-999,108
-120,349,3156,-602,-1057,148
-120,287,2969,-707,-1161,153
-37,11,3249,-784,-1291,125
-64,-232,3182,-799,-1359,117
8,-329,3115,-766,-1437,113
181,-455,3326,-698,-1514,84
312,-473,3398,-638,-1547,76
479,-427,3443,-596,-1579,73
717,-403,4010,-597,-1615,58
876,-379,4577,-535,-1558,28
942,-371,4640,-397,-1412,0
865,-298,4418,-288,-1283,-1
761,-250,4229,-238,-1216,-2
701,-510,3975,-206,-1194,-12
777,-447,3934,-182,-1237,16
986,-311,4311,-176,-1287,26
986,-311,4311,-176,-1287,26
1154,-334,4301,-182,-1269,27
1274,-310,4092,-198,-1267,44
1338,-422,3870,-261,-1306,64
1488,-784,3886,-351,-1382,82
1597,-948,4088,-428,-1442,141
1595,-921,4310,-429,-1432,196
1543,-979,4129,-338,-1375,195
1531,-910,4031,-246,-1345,176
1624,-680,4154,-172,-1334,139
1749,-541,4245,-176,-1298,90
1862,-615,4440,-225,-1272,46
1926,-1012,4744,-198,-1206,26
1978,-1140,4603,-26,-1113,71
2011,-1046,4251,142,-1066,138
2087,-817,4255,225,-1084,191
2206,-637,4548,269,-1092,192
2284,-623,4478,299,-1050,171
2368,-652,4627,287,-1012,165
2410,-617,4615,307,-958,176
2523,-876,4449,332,-914,193
2634,-1025,4571,333,-878,265
2687,-585,4741,363,-813,345
2729,-358,4746,431,-727,324
2811,-581,4882,501,-647,271
2821,-645,4821,551,-541,292
2752,-417,4240,591,-467,340
2775,-285,4429,555,-487,339
2827,-441,4716,536,-453,316
2866,-338,4694,562,-368,330
2877,-98,4646,585,-297,341
2900,-112,4738,561,-245,338
2928,-206,5016,545,-174,365
2909,-226,4895,550,-55,426
2940,-126,4930,523,46,499
2937,101,4971,531,165,552
2835,545,4502,563,276,562
2794,682,4460,534,302,501
2808,410,4830,492,331,445
2845,377,4757,490,437,462
2922,599,4671,471,537,483
2986,595,4812,447,639,458
2877,500,4623,441,781,448
2662,475,4029,408,890,474
2467,546,3852,364,890,498
2243,905,3566,354,863,510
2046,1028,3230,282,788,461
1924,767,3380,161,667,392
1825,405,3667,63,604,380
1671,605,3389,29,600,437
1547,890,3023,-8,545,426
1500,542,3133,-84,442,338
1502,307,3471,-122,386,309
1487,415,3311,-114,403,308
1449,385,3047,-134,384,273
1404,135,3239,-154,326,226
1420,70,3365,-119,311,206
1482,248,3270,-71,305,190
1483,187,3226,-74,267,144
1517,-32,3408,-97,218,118
1579,-89,3531,-106,194,131
1616,-87,3412,-117,178,148
1628,-77,3369,-153,126,157
1592,32,3470,-192,59,151
1564,-63,3583,-205,4,102
1604,-239,3798,-196,-39,69
1697,-192,3840,-203,-59,79
1781,-308,3992,-218,-80,86
1824,-356,4058,-221,-76,99
1824,-356,4058,-221,-76,99
1854,-351,4258,-207,-58,93
1902,-429,4386,-163,-1,84
1890,-414,4262,-134,63,79
1875,-528,4302,-109,109,68
1866,-577,4463,-68,163,74
1854,-529,4368,5,236,82
1839,-368,4284,75,283,75
1815,-209,4187,130,311,40
1818,-180,4058,177,311,-11
1901,-256,4044,195,280,-45
1984,-347,4150,217,242,-47
2000,-355,4216,252,227,-28
1963,-315,4198,271,233,-2
1855,-208,4065,268,239,18
1769,-120,3936,223,226,28
1710,-211,3893,151,190,19
1678,-369,4056,51,151,31
1673,-358,4279,-46,153,77


854,-1195,4594,1267,1387,-348
653,-1179,4301,1271,1380,-318
449,-1051,3995,1256,1323,-279
298,-1034,3794,1121,1228,-218
204,-1031,3714,896,1127,-119
147,-1023,3722,687,1030,-23
61,-1000,3638,507,953,64
76,-965,3666,348,878,143
117,-1174,3696,265,816,199
10,-1279,3506,171,779,305
-148,-1276,3145,128,723,414
-189,-1451,3066,127,618,479
-140,-1703,3214,120,523,553
-140,-1703,3214,120,523,553
-145,-1720,3280,149,476,658
-139,-1456,3224,248,447,747
-36,-1091,3222,357,420,785
-14,-760,3155,441,406,790
-81,-242,3004,471,389,776
-156,-225,2925,508,349,698
-312,-748,2733,570,294,643
-482,-863,2447,570,218,715
-561,-320,2349,568,95,799
-455,34,2517,634,-46,792
-365,-192,2650,624,-154,791
-389,-365,2734,512,-239,905
-431,-189,2858,453,-315,1048
-500,211,2816,475,-381,1149
-533,1432,2752,473,-455,1187
-553,1867,2753,460,-546,1031
-622,1227,2749,392,-649,864
-630,1258,2772,251,-759,859
-645,1596,2720,146,-893,828
-662,1450,2601,82,-1046,723
-651,1086,2331,-4,-1227,666
-518,883,2057,-149,-1463,689
-172,1337,2404,-397,-1735,758
192,2038,3003,-643,-1937,757
417,2663,3337,-858,-2044,652
546,2861,3588,-1062,-2110,455
576,2367,4258,-1182,-2162,190
545,2153,5187,-1135,-2111,-40
583,2578,5485,-1018,-1903,-248
598,2498,5313,-930,-1686,-521
619,2017,5000,-855,-1568,-757
752,1719,5133,-884,-1544,-861
896,1781,5663,-990,-1510,-870
1030,1442,5960,-1076,-1398,-878
1133,1295,5703,-1159,-1257,-832
1228,1620,5884,-1206,-1195,-828
1325,1404,6020,-1183,-1131,-930
1446,1084,6114,-1199,-1065,-995
1580,626,6087,-1227,-995,-1018
1664,177,5823,-1234,-949,-976
1763,-139,5805,-1252,-950,-899
1939,-314,5983,-1264,-929,-814
2176,-788,6097,-1220,-856,-739
2474,-931,6223,-1147,-740,-611
2736,-582,6433,-1076,-564,-516
2839,-576,6572,-998,-324,-550
2881,-880,6682,-896,-27,-625
2737,-1148,6281,-781,299,-655
2476,-1269,5666,-671,547,-651
2236,-1358,5519,-538,690,-648
2092,-1503,5391,-374,814,-646
1971,-1903,5239,-207,927,-624
1861,-2272,5106,-26,1036,-532
1768,-2368,4988,156,1148,-399
1749,-2291,4825,324,1273,-281
1746,-2029,4765,416,1403,-186
1691,-1696,4542,510,1529,-154
1639,-1958,4334,642,1618,-194
1592,-2408,4596,792,1689,-148
1490,-2246,4598,987,1850,0
1188,-1270,3355,1052,1995,118
705,-425,2590,948,1873,48
591,-729,3138,855,1617,-142
655,-1613,3729,809,1494,-204
594,-1570,3487,761,1490,-54
470,-1039,3172,667,1444,82
392,-563,3313,577,1352,128
374,-343,3447,522,1290,105
277,-521,3608,520,1270,64
277,-521,3608,520,1270,64
-39,-375,2748,555,1276,99
-386,99,1998,501,1108,117
-583,200,1983,348,817,61
-622,21,2190,193,543,9
-612,-101,2291,57,329,7
-530,63,2385,-55,146,28
-483,8,2366,-159,-13,19
-387,-115,2568,-267,-172,24
-301,-46,2639,-357,-290,48
-259,-12,2730,-458,-390,64
-276,39,2833,-520,-476,65
-365,114,2733,-507,-560,26
-371,146,2774,-481,-676,-42
-357,182,2825,-470,-796,-109
-336,-3,2938,-480,-916,-172
-223,-304,3153,-465,-1025,-194
-7,-465,3289,-454,-1100,-135
183,-286,3432,-486,-1156,-52
258,-169,3616,-507,-1194,-23
293,-134,3904,-462,-1198,-53
331,-186,3872,-363,-1156,-114
371,-300,3528,-304,-1117,-150
399,-380,3446,-281,-1141,-167
320,-626,3391,-245,-1165,-194
247,-806,3164,-176,-1196,-219
413,-703,3522,-82,-1271,-253
639,-366,3915,-6,-1287,-287
885,-368,3865,19,-1261,-323
1099,-624,3941,-41,-1264,-299
1076,-509,4044,-153,-1262,-182
885,-467,3939,-228,-1268,-106
795,-887,3978,-220,-1301,-96
904,-875,3951,-162,-1325,-49
1143,-578,3974,-132,-1356,-38
1333,-667,4139,-129,-1383,-85
1527,-938,4185,-123,-1375,-114
1728,-1156,4109,-106,-1356,-92
1920,-1341,4182,-137,-1328,-22
1924,-1420,4274,-156,-1277,50
1879,-1255,4404,-91,-1218,84
1885,-1105,4344,-20,-1155,85
1892,-1100,4242,-23,-1113,77
1873,-1042,4558,-58,-1096,92
1860,-1432,4655,-27,-1026,119
1932,-1443,4667,113,-964,195
1973,-1294,4546,240,-911,260
2032,-1195,4415,332,-894,294
2111,-909,4390,355,-907,318
2278,-823,4762,321,-917,301
2408,-1177,4935,327,-865,294
2466,-1162,4771,333,-783,364
2476,-1303,4627,326,-729,420
2615,-1331,4807,369,-677,473
2761,-970,5099,448,-577,505
2806,-686,5313,534,-436,475
2846,-545,5416,563,-278,438
2825,-859,5289,586,-136,427
2769,-1005,5210,621,-37,493
2681,-796,5130,656,48,590
2691,-782,5135,689,130,636
2739,-862,5173,753,217,673
2766,-660,5181,825,319,734
2769,-206,5156,906,421,764
2695,471,4739,913,507,745
2692,440,4786,837,517,631
2734,-157,5053,762,550,560
2719,-27,5129,711,653,627
2655,434,4900,661,766,684
2655,434,4900,661,766,684
2603,574,4838,585,838,669
2452,667,4583,487,913,648
2143,713,3858,431,919,616
2014,412,3958,347,803,569
2039,438,4437,242,746,603
1950,824,4398,190,789,631
1820,812,4072,163,834,569
1727,472,4005,109,842,512
1649,532,3945,46,858,522
1587,598,3801,-35,872,514
1537,399,3986,-97,868,493
1326,554,3565,-87,906,502
1050,826,2767,-68,842,448
943,390,2897,-123,648,313
905,-14,3198,-182,510,262
900,264,3198,-185,428,277
891,366,3152,-212,343,238
938,57,3267,-276,252,190
987,-83,3327,-333,188,196
1000,62,3386,-359,133,203
1070,63,3423,-359,92,153
1124,-103,3522,-364,54,93
1208,-173,3796,-355,30,56
1254,-233,3897,-331,40,35
1244,-193,3789,-320,51,29
1171,-278,3696,-323,28,16
1110,-429,3700,-300,-16,-3
1096,-520,3724,-256,-67,-19
1079,-501,3751,-230,-119,-23
1048,-491,3784,-212,-175,-33
1094,-458,3993,-186,-231,-55
1217,-426,4227,-160,-249,-85
1317,-515,4334,-133,-230,-112
1318,-543,4349,-119,-207,-113
1311,-502,4350,-107,-192,-107
1350,-530,4451,-61,-189,-111
1371,-529,4428,5,-176,-114
1409,-552,4370,35,-164,-109
1391,-624,4319,62,-163,-100
1367,-578,4175,26,-157,-71
1424,-598,4205,-22,-163,-61
1445,-606,4294,-40,-159,-64
1450,-600,4223,-50,-133,-66
1437,-618,4133,-94,-116,-60
1408,-650,4110,-130,-112,-54
1387,-714,4115,-126,-114,-49
1428,-754,4121,-116,-115,-27


-112,-533,3504,440,749,634
-151,-170,3251,522,726,570
-208,-388,3196,528,662,500
-292,-525,3211,472,599,526
-411,-350,3042,388,543,591
-483,-199,2889,326,459,628
-500,-283,2946,263,350,656
-547,-355,3058,222,262,718
-627,-290,2883,231,199,785
-632,-90,2821,234,114,836
-584,233,2785,235,28,848
-567,445,2607,195,-48,838
-601,512,2590,138,-155,822
-692,538,2588,80,-253,804
-815,444,2563,76,-355,767
-890,89,2375,79,-464,753
-908,162,2287,42,-604,807
-852,456,2409,23,-766,830
-664,495,2556,30,-915,835
-428,821,2849,-67,-1040,894
-249,1560,3187,-213,-1123,932
-90,1995,3370,-303,-1176,858
96,1991,3684,-413,-1212,731
203,1732,3944,-505,-1207,614
137,1425,3855,-494,-1171,530
-78,1298,3409,-534,-1155,497
-199,1675,3284,-614,-1229,458
-150,1613,3604,-631,-1332,329
102,1300,4017,-596,-1396,245
300,1415,4254,-638,-1398,256
368,1497,4222,-713,-1374,235
438,1453,4233,-774,-1379,158
556,1621,4410,-818,-1403,57
613,1478,4714,-844,-1384,-84
644,1329,4470,-858,-1323,-173
591,1175,4497,-938,-1338,-218
471,978,4582,-1009,-1371,-239
507,739,4671,-1027,-1395,-245
690,825,5158,-959,-1396,-268
874,1043,5121,-861,-1315,-348
1064,1026,5023,-818,-1267,-457
1193,1025,5270,-787,-1256,-564
1394,743,5449,-736,-1197,-682
1688,277,5702,-699,-1110,-736
1879,129,5740,-671,-994,-676
1900,134,5505,-701,-892,-587
1910,281,5477,-760,-857,-528
1934,354,5901,-766,-827,-547
2045,325,6163,-698,-721,-609
2161,54,6330,-594,-565,-690
2247,-175,6325,-495,-388,-732
2318,21,6356,-428,-215,-746
2329,43,6213,-405,-54,-786
2329,43,6213,-405,-54,-786
2388,-157,6099,-428,72,-821
2380,-512,6195,-461,190,-814
2253,-680,6002,-457,330,-752
2120,-550,5801,-451,434,-680
2043,-679,5902,-416,517,-664
1921,-970,5770,-335,639,-653
1853,-1283,5565,-220,764,-634
1712,-1480,5141,-81,882,-587
1640,-922,4694,21,940,-531
1688,-1111,4510,34,916,-608
1765,-1902,4981,56,902,-596
1793,-1790,4932,101,1011,-422
1680,-1205,4628,145,1109,-311
1632,-1019,4615,200,1169,-345
1545,-1236,4562,266,1246,-411
1358,-1494,4234,362,1304,-419
1151,-1517,4259,481,1308,-374
1003,-1299,4026,615,1339,-318
808,-1080,3425,661,1319,-282
707,-1131,3693,648,1208,-276
746,-1506,4395,734,1199,-251
851,-1192,3634,767,1337,-121
733,-654,2829,533,1278,-36
600,-474,3703,350,1096,-51
599,-609,4131,397,1122,-124
507,-901,3535,531,1202,-170
261,-840,2923,522,1153,-118
-17,-600,2716,430,996,-57
-214,-423,2635,378,819,-42
-325,-458,2478,342,646,-59
-258,-592,2696,293,458,-66
-127,-693,3125,268,334,-40
-66,-658,3191,274,306,9
-96,-145,2907,261,284,62
-176,143,2888,196,209,45
-210,12,3051,127,133,11
-245,197,3084,85,76,17
-285,465,3090,50,9,-8
-265,483,3278,22,-61,-63
-266,435,3304,0,-116,-80
-290,392,3261,-90,-179,-53
-244,279,3326,-200,-256,-13
-239,400,3380,-267,-326,22
-280,498,3244,-313,-390,15
-315,493,3116,-384,-488,-14
-263,330,3294,-461,-605,-59
-236,-85,3278,-507,-687,-81
-184,-38,3131,-538,-779,-39
-35,-115,3103,-585,-897,-31
168,-398,3333,-628,-1005,-45
299,-466,3527,-621,-1057,-38
381,-272,3514,-613,-1074,-30
487,-246,3714,-606,-1101,-68
526,-336,3720,-557,-1101,-106
599,-572,3743,-531,-1108,-110
648,-644,4090,-530,-1112,-65
576,-432,3681,-526,-1063,0
540,-598,3436,-561,-1099,27
504,-1008,3686,-587,-1168,61
477,-926,3626,-534,-1176,125
629,-623,3656,-427,-1189,129
859,-693,3764,-325,-1194,72
1024,-780,3745,-272,-1178,46
1202,-621,3939,-222,-1164,45
1304,-552,4008,-191,-1122,21
1382,-615,4051,-203,-1091,-7
1432,-513,4327,-214,-1071,-34
1436,-717,4412,-181,-1016,-71
1359,-918,4179,-161,-971,-52
1359,-918,4179,-161,-971,-52
1267,-804,4159,-165,-973,-5
1219,-847,4133,-151,-979,4
1193,-936,4150,-135,-994,15
1288,-916,4215,-107,-1007,28
1509,-879,4422,-71,-1015,38
1733,-865,4586,-87,-986,55
1883,-864,4802,-115,-927,78
1937,-1052,4700,-56,-844,92
1955,-1144,4482,36,-809,118
1925,-1294,4239,87,-818,162
1909,-1234,4053,76,-863,237
1919,-1098,4190,19,-924,282
1950,-1180,4344,0,-951,285
1959,-1368,4418,-28,-929,298
1973,-1342,4562,13,-887,331
2039,-1090,4808,112,-813,335
2048,-1058,4796,216,-697,304
2038,-1131,4475,300,-617,296
2181,-1060,4652,325,-613,320
2420,-956,5141,356,-584,347
2582,-941,5245,410,-461,353
2614,-1116,5007,503,-347,359
2664,-1148,4789,560,-272,405
2757,-1025,4619,576,-231,460
2889,-702,4913,571,-198,486
2992,-271,5076,569,-108,470
3022,-213,5106,535,-5,428
3026,-263,5240,497,85,424
3056,-38,5603,457,203,464
2950,-88,5512,473,377,486
2828,-272,4939,475,528,536
2606,16,4386,434,578,627
2418,587,4228,376,535,644
2314,525,4274,318,479,564
2275,102,4452,256,459,521
2244,97,4518,226,494,569
2222,425,4558,233,561,604
2180,549,4564,258,664,564
2068,303,4388,296,796,498
1917,97,4014,300,902,493
1718,342,3460,231,936,540
1465,711,3123,133,870,530
1245,674,2986,41,748,432
1138,299,3107,-51,611,346
1164,313,3359,-89,496,332
1205,513,3520,-86,426,309
1218,290,3531,-94,389,252
1178,81,3403,-128,352,241
1153,127,3399,-171,289,257
1192,47,3602,-209,233,239
1257,-129,3793,-228,228,221
1221,-168,3643,-210,245,217
1165,-174,3432,-177,223,179
1126,-282,3301,-167,165,106
1120,-526,3328,-174,73,41
1176,-590,3566,-190,-4,20
1257,-430,3677,-195,-53,3
1396,-417,3890,-208,-90,-35
1481,-477,4097,-252,-100,-61
1531,-466,4259,-277,-96,-65
1516,-480,4303,-296,-82,-65
1488,-489,4276,-300,-81,-61
1474,-572,4239,-299,-92,-56
1494,-704,4224,-305,-113,-38
1532,-820,4277,-307,-137,-3
1532,-846,4169,-282,-154,35
1518,-769,4038,-269,-182,57
1564,-788,4174,-246,-219,31
1593,-915,4224,-201,-218,0
1593,-915,4224,-201,-218,0
1610,-914,4228,-157,-204,-10
1621,-841,4258,-112,-189,-23
1690,-688,4363,-64,-170,-47
1757,-632,4451,-24,-138,-84
1774,-722,4380,10,-99,-108
1773,-713,4326,17,-79,-95


-200,-677,3491,550,826,382
-284,-601,3480,522,760,431
-282,-527,3582,482,701,497
-179,-470,3760,462,674,567
-127,-329,3821,507,687,626
-238,-63,3403,532,717,666
-389,-86,2915,494,672,665
-466,-441,2866,409,550,684
-624,-829,2856,349,438,761
-731,-946,2702,322,346,898
-591,-604,2713,433,219,996
-663,-759,2717,519,112,1039
-653,60,2798,588,23,1131
-571,1651,2821,645,-50,1079
-519,1940,2737,563,-127,829
-315,1220,3061,305,-225,669
-174,637,3408,17,-263,694
-362,423,3140,-167,-260,802
-606,420,2747,-262,-312,878
-680,476,2804,-276,-428,890
-592,526,3085,-174,-537,857
-518,749,3186,-53,-607,832
-558,1409,2815,-39,-678,828
-508,2019,2736,-169,-833,762
-284,2071,3245,-359,-1008,630
-284,2071,3245,-359,-1008,630
-82,1511,3834,-508,-1088,526
-97,1153,3850,-578,-1064,519
-204,1171,3566,-596,-1072,534
-247,1505,3557,-591,-1143,512
-217,1695,3630,-616,-1213,421
-123,1583,3661,-655,-1286,330
-67,1562,3587,-751,-1370,289
67,1564,3740,-917,-1475,256
238,1287,3955,-1065,-1556,213
353,1184,3858,-1175,-1603,204
489,1048,3867,-1319,-1666,175
519,1174,4366,-1394,-1730,102
485,1403,4841,-1362,-1679,-34
623,1080,4710,-1207,-1543,-229
788,1136,4826,-1069,-1475,-357
860,1129,4755,-990,-1420,-477
964,698,4707,-999,-1395,-574
1043,453,4751,-1066,-1400,-568
1146,364,4846,-1162,-1416,-520
1289,481,5070,-1237,-1419,-474
1421,779,5344,-1291,-1376,-484
1510,787,5550,-1313,-1297,-580
1698,562,5883,-1269,-1203,-708
1931,234,6437,-1151,-1057,-827
2183,34,6789,-956,-821,-893
2319,117,6284,-764,-552,-916
2399,-31,5829,-717,-395,-954
2427,-701,5890,-755,-322,-957
2376,-921,5995,-767,-233,-835
2246,-679,5718,-758,-131,-701
2213,-684,5524,-779,-74,-641
2212,-853,5592,-790,-21,-617
2159,-1023,5543,-753,78,-616
2071,-1214,5346,-648,196,-636
2028,-1443,5185,-538,303,-648
1969,-1421,5113,-463,396,-620
1987,-1243,5103,-409,482,-596
2031,-1654,5100,-314,573,-604
2048,-2063,4924,-213,679,-533
1942,-1810,4680,-143,761,-404
1789,-1591,4845,-45,817,-346
1772,-1431,4593,28,928,-361
1650,-1834,4238,73,963,-422
1649,-2051,4415,118,970,-377
1658,-1978,4472,172,1015,-285
1641,-1979,4614,246,1075,-222
1595,-1614,4530,296,1169,-154
1589,-1148,4400,295,1248,-137
1543,-1447,4349,307,1306,-168
1349,-1564,3944,310,1350,-111
1053,-1065,3391,322,1303,-39
771,-882,3546,277,1168,-58
608,-1347,4036,323,1090,-104
593,-1367,3264,351,1108,-46
486,-1058,2852,140,965,20
528,-833,3905,-10,797,37
644,-981,4296,39,849,4
685,-1101,4128,179,955,5
612,-812,4041,256,1029,46
450,-781,3634,295,1091,54
206,-489,2950,302,1055,67
28,-323,2818,276,895,11
-50,-629,3035,239,735,-56
-98,-855,3076,192,630,-49
-84,-859,3076,161,543,2
-41,-681,3134,159,463,44
1,-790,3169,182,407,36
-43,-769,3097,205,368,43
-43,-769,3097,205,368,43
-143,-257,2950,230,301,50
-200,-143,2865,224,202,-18
-177,-376,3100,177,86,-72
-161,-287,3219,134,6,-59
-152,-1,3112,81,-58,-48
-193,-27,2944,-3,-149,-76
-209,-289,2899,-120,-267,-81
-212,-200,2905,-241,-385,-36
-278,49,2787,-355,-506,-25
-283,-11,2732,-465,-644,-83
-185,-431,2866,-565,-782,-141
-31,-619,3115,-637,-884,-130
77,-586,3227,-678,-939,-93
114,-655,3209,-690,-985,-82
118,-440,3245,-672,-1039,-89
151,-319,3389,-620,-1092,-160
246,-683,3557,-562,-1114,-260
397,-900,3839,-488,-1110,-287
450,-744,3856,-388,-1071,-254
483,-544,3731,-325,-1049,-238
547,-684,3554,-306,-1056,-246
562,-819,3301,-344,-1097,-223
591,-760,3390,-387,-1179,-203
722,-901,3743,-365,-1226,-228
790,-1009,3660,-313,-1206,-232
884,-955,3382,-287,-1212,-216
1048,-1083,3507,-272,-1266,-240
1237,-1213,3989,-228,-1281,-256
1384,-976,4183,-139,-1208,-256
1469,-708,3717,-126,-1142,-269
1539,-871,3662,-207,-1199,-298
1598,-1214,3986,-316,-1263,-285
1683,-1511,4050,-361,-1282,-225
1789,-1541,3927,-430,-1307,-131
1849,-1528,4259,-538,-1342,-64
1883,-1811,4491,-526,-1314,-35
1875,-2051,4246,-404,-1256,21
1839,-2067,3916,-277,-1250,105
1918,-2013,4061,-203,-1283,158
2111,-2036,4482,-115,-1261,157
2451,-1952,4949,2,-1169,154
2635,-1812,5199,128,-1016,170
2585,-1841,4939,235,-856,193
2509,-1987,4645,306,-757,229
2484,-1823,4542,360,-707,295
2647,-1609,4827,420,-668,302
2879,-1697,5275,515,-572,273
2888,-1504,5313,588,-418,311
2732,-1240,4980,599,-297,361
2615,-1444,4821,590,-251,375
2549,-1571,4686,574,-232,441
2459,-1380,4429,561,-216,527
2487,-1388,4509,580,-214,548
2576,-1132,4689,598,-166,567
2621,-813,4639,599,-86,556
2659,-830,4597,573,-19,518
2631,-825,4632,531,32,503
2593,-683,4669,511,91,500
2607,-747,4727,509,151,500
2570,-709,4747,503,227,538
2478,-404,4711,501,309,572
2364,-326,4523,505,371,561
2240,-247,4402,463,404,560
2159,-179,4231,392,413,561
2267,-279,4436,331,394,563
2312,-40,4726,274,428,606
2219,233,4721,207,526,619
2003,-32,4378,181,616,587
2003,-32,4378,181,616,587
1805,61,3849,173,650,595
1632,296,3502,133,602,569
1540,-10,3539,74,506,506
1541,-100,3691,37,444,495
1526,87,3583,20,429,482
1529,20,3730,23,420,409
1511,-192,3881,68,452,341
1425,-218,3510,97,506,328
1322,-17,2987,38,469,325
1241,-149,3130,-72,347,273
1244,-395,3399,-120,257,228
1235,-389,3172,-124,211,221
1216,-436,3108,-164,116,198
1276,-471,3374,-199,19,165
1313,-438,3466,-201,-20,119
1345,-639,3598,-182,-49,59
1441,-691,3850,-139,-57,34
1535,-689,3896,-99,-34,24
1557,-826,3934,-67,-14,16
1502,-870,3845,-29,-3,23
1464,-908,3796,-4,-21,28
1415,-954,3807,3,-49,36
1375,-956,3735,23,-78,36
1390,-895,3804,30,-125,25
1426,-816,3894,0,-157,5
1509,-773,4023,-30,-184,-23
1604,-787,4177,-60,-196,-51
1660,-941,4272,-94,-194,-60
1640,-978,4303,-119,-183,-37
1572,-938,4290,-126,-169,-20
1569,-1023,4233,-111,-149,-20
1578,-1058,4232,-83,-134,-9
1596,-1002,4166,-55,-108,1
1666,-1079,4103,-43,-87,-2
1694,-1124,4097,-41,-66,6
1631,-921,4007,-40,-40,19


835,-808,5863,288,460,-81
820,-978,5668,367,572,-99
886,-1150,5546,391,644,-81
1070,-1260,5653,402,707,-44
1283,-1473,5862,446,809,-1
1348,-1512,5912,484,970,85
1263,-1209,5670,526,1160,171
1138,-1107,5229,603,1306,162
1016,-1289,4962,634,1381,135
800,-1254,4454,628,1418,158
540,-1103,4042,576,1362,168
387,-1129,4025,503,1245,149
227,-1396,3952,473,1149,129
126,-1560,3963,457,1061,160
156,-1384,4051,479,997,213
130,-1481,4152,550,958,236
236,-1569,4250,585,995,321
236,-1569,4250,585,995,321
267,-1253,3704,489,1045,395
110,-1414,3692,466,980,412
100,-1328,3871,458,954,477
-38,-1151,3653,473,966,524
-254,-871,3292,488,934,558
-518,-774,2915,466,840,551
-652,-885,2725,405,684,548
-625,-1182,2798,333,512,576
-557,-1496,2805,276,378,661
-519,-1422,2628,259,258,786
-464,-1195,2537,293,119,870
-369,-1183,2528,336,-9,904
-340,-1475,2536,383,-129,953
-335,-1366,2564,395,-225,1092
-368,-712,2595,420,-307,1209
-391,520,2678,458,-376,1213
-422,1062,2547,490,-436,1023
-374,741,2547,473,-526,796
-366,382,2621,444,-616,669
-425,260,2360,442,-702,632
-457,535,2080,372,-860,654
-421,902,2050,220,-1079,657
-221,1034,2369,50,-1306,614
-77,1145,2639,-169,-1487,601
5,1268,2744,-437,-1642,609
68,1317,2823,-640,-1806,605
98,1542,2782,-819,-1971,602
195,1844,2667,-1024,-2150,554
439,1941,3140,-1183,-2350,400
669,1650,4216,-1209,-2439,165
771,1736,5184,-1130,-2343,-35
830,2398,5876,-976,-2099,-264
892,2545,5558,-783,-1776,-585
1019,1814,5194,-713,-1586,-853
1163,1297,5351,-801,-1513,-909
1222,1232,5423,-946,-1441,-852
1258,1034,5431,-1065,-1382,-809
1294,1000,5346,-1106,-1351,-768
1370,1226,5299,-1162,-1350,-765
1556,1216,5840,-1253,-1354,-855
1756,1228,6513,-1282,-1258,-984
1873,938,6443,-1232,-1047,-1150
2028,140,6426,-1212,-862,-1273
2164,-352,6384,-1127,-689,-1277
2258,-698,5673,-986,-544,-1211
2346,-1070,5208,-966,-531,-1088
2444,-1232,5506,-982,-579,-926
2551,-1183,5642,-952,-551,-777
2651,-1201,5654,-921,-474,-685
2754,-1154,5730,-868,-354,-643
2838,-1222,5850,-770,-175,-663
2850,-1516,5856,-623,55,-721
2742,-1737,5598,-486,307,-739
2599,-1906,5145,-385,508,-709
2549,-2316,4690,-313,623,-643
2458,-2555,4629,-283,666,-486
2377,-2423,4824,-221,720,-306
2335,-2276,5041,-87,834,-194
2248,-2441,5166,93,1016,-146
2095,-2365,4978,319,1245,-86
1864,-2091,4728,508,1457,-57
1679,-1859,4348,692,1619,-80
1603,-1975,4067,888,1702,-140
1511,-2467,4208,1032,1749,-135
1528,-1864,4176,1104,1840,0
1457,-1554,3848,1162,1885,22
1321,-1867,4352,1263,1903,43
1257,-1529,3872,1194,2074,142
1257,-1529,3872,1194,2074,142
1163,-1482,3054,1105,2110,172
1017,-1542,2798,1046,1973,209
623,-1154,2392,907,1812,297
200,-717,1923,745,1580,321
-48,-397,1915,610,1261,261
-138,-188,2239,497,964,159
-194,-137,2244,352,741,73
-193,-351,2092,150,530,30
-183,-617,2177,-28,302,42
-123,-659,2525,-152,116,79
22,-659,2928,-212,21,107
52,-413,3101,-223,11,138
-99,70,2903,-138,13,108
-292,123,2359,-79,-36,-8
-315,-318,2201,-79,-210,-105
-203,-488,2547,-132,-404,-98
-161,-161,2653,-199,-529,-52
-153,172,2647,-275,-659,-65
-111,205,2879,-350,-807,-130
-18,-133,3162,-419,-912,-186
91,-359,3078,-464,-975,-166
229,-317,3122,-527,-1062,-119
328,-308,3276,-581,-1137,-99
405,-393,3337,-597,-1179,-97
485,-545,3311,-577,-1220,-111
536,-600,3340,-577,-1264,-116
571,-641,3407,-584,-1287,-123
650,-531,3418,-562,-1281,-144
754,-640,3697,-446,-1266,-232
884,-855,3805,-312,-1192,-289
1038,-942,3658,-227,-1115,-269
1116,-1067,3629,-216,-1090,-196
1113,-1074,3576,-252,-1094,-78
1093,-849,3707,-275,-1113,5
1113,-999,3837,-234,-1113,0
1204,-1260,3728,-163,-1092,8
1274,-1091,3765,-108,-1077,54
1377,-873,4064,-63,-1043,44
1541,-912,4252,-2,-961,-25
1633,-943,4091,77,-866,-82
1669,-1051,3877,103,-835,-102
1714,-1259,3978,24,-865,-70
1699,-1416,4013,-74,-869,21
1631,-1386,3949,-83,-878,110
1552,-1380,3936,-8,-901,147
1510,-1340,3873,98,-923,163
1519,-1248,3867,178,-946,159
1610,-1238,4135,235,-969,132
1824,-1194,4406,316,-951,97
2049,-1137,4701,380,-886,69
2169,-1360,4690,454,-797,56
2197,-1219,4613,498,-727,109
2143,-987,4401,493,-683,155
2205,-1042,4575,473,-684,164
2332,-1110,4873,488,-659,185
2364,-953,4789,465,-611,241
2362,-1127,4762,428,-589,279
2411,-1184,4717,443,-614,321
2476,-1071,4950,408,-611,373
2544,-1158,4913,395,-565,393
2570,-1248,5075,373,-507,423
2550,-963,5177,388,-406,448
2582,-625,4959,406,-305,419
2721,-706,5063,365,-274,367
2841,-797,5352,314,-230,372
2868,-556,5467,285,-138,412
2883,-529,5564,276,-28,413
2888,-784,5420,281,96,426
2938,-916,5299,268,207,501
2938,-916,5299,268,207,501
2934,-680,5276,238,311,610
2838,-341,5032,243,420,675
2804,-439,4913,294,487,674
2746,-539,4797,373,559,689
2607,-263,4250,419,611,730
2512,-130,4426,399,587,718
2423,21,4734,410,625,692
2355,256,4670,424,724,664
2350,189,4724,416,819,626
2238,122,4519,431,935,615
2031,223,3863,425,1011,620
1770,478,2986,333,959,612
1648,486,2813,141,757,565
1680,59,3386,-21,556,510
1675,-16,3764,-21,488,504
1579,184,3724,101,497,470
1548,190,3672,187,510,396
1519,116,3650,216,523,330
1458,105,3601,242,534,280
1376,163,3494,228,534,240
1266,233,3221,181,498,200
1235,73,2999,53,401,169
1290,-258,3239,-112,267,173
1308,-344,3546,-193,180,214
1292,-270,3525,-187,149,232
1279,-252,3403,-175,109,218
1300,-350,3479,-191,53,187
1326,-478,3611,-188,12,154
1395,-462,3688,-168,-1,135
1452,-535,3794,-127,-7,94
1451,-626,3930,-74,1,55
1436,-655,4005,0,30,29
1425,-601,4069,77,64,7
1402,-533,4015,126,96,-8
1307,-538,3869,146,96,-23
1208,-622,3813,153,60,-29
1199,-662,3729,124,6,-7
1247,-712,3796,65,-66,27
1280,-725,3928,34,-131,63
1360,-620,4072,31,-173,91
1457,-530,4221,43,-190,96
1546,-407,4378,50,-180,91
1657,-284,4567,51,-145,67


841,-703,5665,408,332,-73
784,-553,5742,464,432,-111
737,-680,5531,565,529,-187
796,-824,5465,591,584,-205
944,-932,5653,558,640,-176
1060,-976,5939,588,747,-150
1079,-1057,5868,687,923,-140
1092,-1232,5695,798,1093,-126
1177,-1272,5586,884,1245,-78
1131,-1024,5024,857,1377,17
942,-681,4397,767,1375,75
728,-608,4259,634,1273,55
546,-770,4228,509,1168,14
427,-1068,4309,413,1080,-4
425,-1250,4397,367,1029,19
394,-1211,4285,331,1008,88
356,-1103,4151,286,984,158
337,-1037,4142,253,956,210
296,-1069,4051,234,946,252
299,-1232,4099,231,936,291
345,-1299,4161,294,955,346
265,-1206,3975,346,1007,415
37,-967,3665,381,1041,450
-206,-878,3238,416,1023,441
-459,-774,2743,424,933,446
-723,-901,2237,331,766,463
-813,-1290,2178,196,532,504
-733,-1542,2347,117,319,590
-646,-1444,2370,91,169,706
-592,-1290,2158,83,40,806
-511,-1161,1937,51,-122,890
-380,-1125,2110,13,-324,989
-268,-380,2514,36,-474,1096
-282,468,2546,-29,-520,1103
-78,1910,2345,18,-604,954
-211,2014,2227,-80,-757,639
-437,889,2151,-301,-936,425
-539,491,1960,-480,-1150,448
-568,929,1891,-583,-1418,506
-418,958,2170,-721,-1698,495
-49,805,2575,-890,-1925,500
309,723,3073,-1064,-2079,540
454,868,3653,-1197,-2153,590
413,1221,4068,-1258,-2124,564
355,1335,4275,-1218,-2011,395
316,1285,4339,-1040,-1866,133
377,1099,4215,-858,-1720,-105
518,818,4162,-771,-1621,-248
655,532,4251,-749,-1566,-279
651,433,4298,-770,-1523,-250
596,481,4200,-772,-1497,-243
665,554,4258,-732,-1507,-313
870,707,4631,-669,-1513,-429
1154,1073,4840,-644,-1475,-538
1474,1161,5367,-739,-1428,-672
1538,1004,5835,-883,-1319,-795
1624,542,5927,-921,-1152,-899
1733,92,5910,-859,-1014,-958
1753,54,5865,-832,-919,-930
1855,216,6135,-822,-863,-897
1982,291,6301,-759,-779,-913
2084,-202,5804,-708,-685,-952
2233,-769,5543,-771,-669,-901
2233,-769,5543,-771,-669,-901
2454,-954,5910,-854,-614,-697
2454,-954,5910,-854,-614,-697
2649,-893,6055,-832,-490,-662
2777,-1142,5922,-771,-311,-682
2881,-1565,5932,-672,-126,-705
2941,-1671,6000,-551,87,-681
2894,-1282,5906,-442,324,-655
2729,-1410,5543,-342,536,-710
2606,-1944,5274,-249,678,-739
2506,-2123,5164,-154,787,-672
2322,-1877,4968,-40,894,-587
2116,-1788,4749,44,976,-567
1980,-2133,4688,94,1033,-555
1899,-2238,4460,181,1093,-479
1826,-2296,4262,238,1120,-386
1873,-2298,4387,266,1138,-273
1846,-2430,4613,364,1214,-191
1788,-2499,4610,494,1362,-98
1736,-2171,4292,562,1507,-29
1604,-2105,4417,596,1614,-18
1382,-1989,4357,700,1755,19
1091,-1402,3361,881,1872,51
725,-1160,2491,906,1763,-9
638,-1367,3010,819,1505,-83
641,-1361,3328,766,1371,-81
646,-1263,3185,745,1295,-54
673,-1289,3207,699,1193,-30
702,-1289,3406,615,1114,14
691,-1410,3672,551,1091,72
677,-1408,3731,537,1130,156
508,-962,3508,557,1182,231
209,-187,3219,623,1190,206
-69,-3,2784,676,1135,55
-248,-437,2558,695,989,-100
-370,-687,2538,667,804,-126
-386,-607,2837,628,621,-65
-282,-427,3145,589,500,14
-260,-219,3068,527,446,76
-279,62,2875,433,363,100
-340,114,2764,312,244,88
-379,139,2795,227,101,71
-358,314,3041,162,-30,44
-363,335,3095,92,-116,-7
-402,171,2734,-3,-212,-51
-365,70,2582,-170,-392,-55
-241,-57,2899,-344,-595,-42
-178,-21,2947,-477,-741,-6
-107,-104,2890,-591,-878,6
-20,-163,2698,-678,-1019,1
97,-137,2572,-762,-1185,-20
283,-113,2885,-842,-1362,-72
390,-291,3188,-885,-1465,-140
552,-596,3356,-890,-1506,-171
727,-687,3711,-872,-1514,-178
726,-771,3720,-761,-1459,-214
730,-1256,3281,-686,-1396,-241
774,-1597,3238,-667,-1405,-187
755,-1413,3414,-601,-1420,-99
709,-954,3480,-483,-1404,-80
786,-666,3528,-381,-1377,-154
903,-638,3406,-303,-1355,-261
1015,-745,3082,-294,-1385,-322
1138,-828,3194,-373,-1498,-318
1294,-832,4081,-481,-1597,-290
1350,-983,4803,-488,-1541,-287
1343,-1105,4521,-320,-1388,-291
1407,-1195,4118,-206,-1294,-287
1531,-1428,3881,-197,-1279,-256
1671,-1527,4003,-193,-1311,-192
1823,-1577,4364,-163,-1302,-136
1897,-1608,4433,-67,-1215,-95
1897,-1608,4433,-67,-1215,-95
1996,-1146,4529,53,-1116,-75
2126,-859,4755,171,-1033,-152
2298,-1085,4861,203,-935,-231
2322,-1396,4803,123,-843,-191
2308,-1861,4824,45,-786,-57
2233,-2057,4904,93,-751,128
1981,-1794,4103,214,-716,298
1946,-1824,3530,250,-811,368
2073,-2139,4131,266,-948,385
2169,-2033,4305,411,-935,432
2282,-1665,4127,578,-889,448
2491,-1425,4376,656,-856,412
2677,-1318,4684,714,-762,361
2812,-1364,4748,776,-628,332
2870,-1333,4850,785,-496,365
2878,-999,4918,813,-386,431
2821,-836,4641,800,-302,479
2739,-971,4376,730,-279,514
2680,-1123,4377,676,-289,560
2640,-1180,4278,676,-285,617
2649,-925,4146,696,-290,676
2728,-728,4374,724,-295,676
2826,-557,4860,779,-231,637
2909,-292,5079,864,-77,576
2956,-263,5000,889,97,526
2995,-200,5225,857,241,541
2949,-4,5393,817,401,599
2871,-205,5355,770,559,654
2814,-461,5475,737,709,758
2723,-345,5480,754,891,888
2589,-120,5040,804,1072,982
2440,106,4428,841,1166,1028
2203,384,3619,853,1135,1040
2005,710,3082,718,948,1036
2031,720,3651,497,680,980
2142,651,4436,336,556,918
2185,771,4683,270,613,844
2102,608,4525,278,733,732
1999,401,4335,262,842,654
1886,315,4170,238,924,623
1759,366,4036,239,976,622
1529,823,3245,235,1008,613
1213,1050,2377,148,880,506
1029,609,2627,-4,606,339
1037,115,3209,-122,424,254
1095,-44,3388,-157,361,252
1152,182,3380,-164,329,274
1207,389,3343,-177,299,234
1179,174,3287,-207,262,135
1069,-124,3157,-233,209,74
1023,-182,2985,-275,115,75
1054,-319,3151,-356,-16,83
1119,-446,3482,-399,-110,99
1177,-439,3554,-375,-150,108
1278,-484,3572,-338,-183,99
1417,-511,3701,-313,-211,89
1566,-516,3864,-296,-215,76
1649,-544,4038,-269,-196,60
1662,-550,4016,-225,-158,45
1658,-606,3858,-206,-135,33
1660,-693,3782,-190,-156,25
1654,-641,3813,-179,-199,34
1626,-476,3874,-167,-237,22
1594,-404,3924,-135,-277,-25


1246,-1071,5438,95,513,-200
1370,-1264,5422,82,587,-170
1423,-1450,5334,57,671,-116
1393,-1565,5328,49,763,-58
1359,-1645,5066,86,879,-22
1336,-1810,4714,138,963,0
1246,-2114,4543,196,1011,30
1196,-2181,4377,217,1067,106
1116,-2162,4110,253,1112,163
984,-2127,3776,320,1133,185
866,-2238,3709,394,1132,193
814,-2133,3792,484,1158,224
694,-1965,3385,566,1216,230
495,-2066,3390,660,1206,244
477,-1807,3039,611,1255,310
258,-2098,2253,509,1219,327
112,-2127,2219,471,1033,427
67,-1856,2429,419,894,533
20,-1804,2282,438,818,576
-70,-1724,2055,459,730,625
-170,-1579,1930,467,616,662
-279,-1577,1717,484,497,685
-373,-1402,1563,482,352,733
-397,-1014,1536,475,200,774
-399,-737,1416,461,47,773
-405,-453,1488,433,-129,771
-328,28,1797,386,-291,755
-309,333,1992,325,-402,693
-352,266,1894,249,-497,631
-381,245,1880,173,-641,604
-381,245,1880,173,-641,604
-378,509,2249,112,-813,592
-325,630,2448,71,-937,563
-294,593,2591,-14,-1046,559
-311,830,2671,-111,-1157,579
-351,748,2369,-218,-1275,562
-285,512,2338,-352,-1459,548
-108,645,2574,-444,-1653,547
206,1161,2701,-517,-1811,508
686,1789,3351,-616,-1936,339
993,1505,4157,-643,-1931,46
998,1275,4625,-559,-1827,-167
916,1180,4815,-561,-1670,-312
773,883,4727,-613,-1511,-430
672,485,4354,-590,-1416,-501
710,556,4254,-628,-1423,-505
851,731,4475,-658,-1474,-539
1044,538,4886,-660,-1500,-608
1322,375,5243,-655,-1449,-638
1530,180,5236,-678,-1340,-646
1616,312,5105,-698,-1258,-644
1751,342,5155,-728,-1207,-714
1905,-190,5679,-742,-1155,-830
2070,-478,6431,-690,-1014,-869
2089,-508,6338,-503,-754,-886
2124,-803,5512,-323,-539,-921
2251,-924,5259,-282,-477,-899
2390,-971,5415,-289,-445,-859
2518,-1163,5518,-306,-377,-800
2611,-1227,5524,-336,-284,-710
2626,-1171,5504,-369,-173,-634
2634,-948,5361,-375,-48,-614
2694,-1079,5351,-345,61,-685
2664,-1616,5469,-322,198,-748
2465,-2011,5306,-297,365,-696
2318,-2065,4793,-260,488,-570
2264,-1903,4613,-252,525,-442
2201,-1820,4800,-251,565,-363
2062,-1982,4909,-145,673,-316
2027,-1559,4403,-73,829,-260
1924,-1636,4323,-7,881,-315
1854,-1988,4407,77,955,-323
1769,-1958,4129,142,1060,-263
1695,-1926,4002,180,1122,-216
1668,-1908,3696,204,1168,-171
1584,-1742,3501,186,1164,-125
1455,-1634,3649,166,1134,-106
1325,-1583,3476,207,1133,-81
1205,-1602,3129,204,1103,-59
1121,-1790,3432,163,1025,-34
1105,-1759,4237,203,1043,15
1134,-1639,4565,432,1238,49
1188,-1122,3869,561,1474,60
1045,-1092,3403,525,1569,10
819,-1403,3328,560,1589,5
647,-1278,2925,714,1595,66
449,-792,2277,808,1497,107
211,-529,1963,743,1282,83
34,-619,1940,600,1028,40
-48,-776,2354,452,796,28
-86,-903,2512,377,669,45
-111,-890,2311,344,576,83
-144,-582,2461,287,464,115
-125,-561,2535,268,392,84
-66,-815,2603,286,330,50
-21,-568,2787,315,278,61
-81,-192,2661,336,247,39
-184,-144,2469,347,168,-24
-258,-128,2560,285,40,-58
-258,-128,2560,285,40,-58
-253,-249,2699,202,-77,-73
-185,-383,2757,143,-179,-56
-95,-179,2806,108,-283,-14
1,-10,2638,32,-385,3
53,-193,2636,-94,-523,-1
104,-340,2873,-221,-659,9
219,-203,3109,-310,-750,20
339,-256,3221,-364,-800,-10
385,-465,3086,-401,-837,-44
391,-584,3004,-436,-896,-66
428,-703,3069,-471,-957,-83
469,-736,3022,-490,-997,-89
506,-731,3029,-468,-1043,-106
531,-721,3043,-433,-1088,-127
580,-796,2999,-442,-1136,-130
672,-840,3118,-453,-1190,-125
798,-871,3540,-405,-1224,-132
888,-926,3670,-334,-1183,-132
980,-745,3604,-253,-1126,-127
1036,-558,3537,-180,-1087,-170
1051,-607,3453,-121,-1067,-241
1076,-894,3494,-95,-1069,-281
1092,-932,3190,-107,-1088,-235
1130,-712,3058,-175,-1179,-179
1243,-768,3428,-283,-1290,-194
1422,-840,3774,-310,-1344,-229
1673,-980,4056,-276,-1330,-267
1836,-1177,4139,-230,-1267,-267
1904,-1162,3827,-225,-1200,-213
1960,-1267,3844,-254,-1199,-168
1948,-1262,4332,-309,-1174,-115
1892,-1335,4555,-342,-1048,-94
1869,-1476,4730,-283,-886,-92
1855,-1547,4404,-104,-742,-74
1782,-1530,3963,21,-704,-36
1677,-1876,3673,48,-772,18
1645,-2195,3770,30,-871,135
1739,-2016,3948,37,-933,269
1967,-1703,4277,99,-941,316
2220,-1477,4556,208,-887,287
2433,-1500,4624,277,-791,259
2634,-1612,4604,310,-692,279
2716,-1523,4684,285,-598,346
2663,-1595,4575,276,-496,388
2637,-1832,4585,335,-424,428
2608,-1730,4600,395,-330,505
2546,-1523,4125,437,-241,564
2514,-1540,3871,410,-237,589
2495,-1572,4140,425,-261,605
2539,-1240,4392,490,-217,620
2656,-1005,4452,558,-121,570
2758,-995,4720,615,-12,491
2821,-819,4919,646,135,471
2818,-884,4699,612,288,493
2723,-1026,4581,542,376,568
2596,-774,4627,499,437,674
2483,-406,4547,497,501,730
2313,-167,3971,520,524,723
2215,-134,3833,481,441,685
2235,-382,4340,400,378,659
2321,-309,4633,387,428,679
2382,-83,4573,415,545,675
2302,134,4405,420,653,642
2250,18,4270,384,748,595
2171,-142,4024,350,818,594
2015,55,3720,296,844,639
1888,201,3638,210,822,650
1727,381,3539,150,785,623
1544,380,3233,119,732,561
1544,380,3233,119,732,561
1356,315,2833,66,628,499
1274,169,2806,-12,467,441
1257,17,2925,-109,327,406
1271,12,2932,-210,233,389
1275,-60,2861,-307,155,355
1283,-189,3097,-382,79,318
1263,-159,3326,-385,61,277
1211,-144,3005,-386,77,227
1176,-352,2888,-434,31,165
1223,-548,3106,-446,-24,133
1247,-509,3113,-434,-44,119
1252,-553,3159,-413,-67,83
1278,-621,3218,-393,-92,55
1232,-682,3181,-394,-121,35
1220,-810,3340,-386,-174,22
1304,-922,3436,-367,-205,22
1355,-981,3545,-344,-218,29
1367,-855,3646,-318,-210,24
1428,-755,3690,-271,-184,-21
1468,-921,3803,-242,-158,-78
1517,-1009,3937,-197,-124,-97
1527,-997,3874,-156,-84,-94
1513,-1037,3874,-148,-66,-88
1464,-1136,3734,-144,-60,-73
1441,-1102,3604,-156,-84,-49
1442,-1189,3675,-165,-122,-36
1481,-1275,3669,-146,-140,-22
1569,-1282,3716,-117,-154,-3
1642,-1206,3847,-85,-144,6
1679,-1135,3879,-47,-109,-5


817,-732,4629,305,810,226
766,-618,4552,330,858,255
722,-226,4569,358,904,252
606,-203,4266,413,959,170
451,-668,3844,414,968,109
320,-955,3689,359,912,142
240,-804,3793,333,853,209
256,-701,3865,369,829,227
365,-796,3836,389,833,246
446,-783,3843,391,841,308
484,-558,3868,413,858,364
436,-258,3790,428,882,390
315,-81,3572,427,895,373
138,-252,3212,391,871,343
-29,-522,2972,313,788,366
-139,-615,2980,226,677,439
-136,-622,2982,175,586,519
-105,-693,2978,134,515,604
-112,-345,2942,123,461,700
-194,-101,2783,122,415,722
-239,-128,2606,123,348,705
-279,-363,2540,85,267,715
-267,-147,2661,44,189,776
-302,215,2657,87,138,786
-475,394,2153,112,87,728
-675,62,1845,93,-72,666
-745,57,2060,44,-282,693
-719,109,2126,-1,-447,734
-571,176,2364,-118,-604,798
-363,725,2861,-216,-722,861
-285,1363,3130,-247,-760,816
-284,1339,2876,-273,-765,685
-259,813,2663,-390,-833,617
-263,595,2702,-540,-949,651
-298,789,2687,-678,-1055,708
-387,1025,2499,-712,-1170,682
-422,738,2198,-737,-1314,586
-341,332,2191,-785,-1500,519
-141,389,2709,-785,-1681,488
111,915,3207,-811,-1742,452
371,1197,3409,-863,-1729,332
503,984,3814,-911,-1700,167
465,494,3705,-902,-1613,35
396,230,3604,-911,-1558,-8
383,515,3871,-857,-1541,-23
398,961,3904,-747,-1513,-91
489,880,3883,-735,-1509,-197
639,385,3919,-744,-1539,-250
763,297,3922,-803,-1584,-195
982,702,4305,-890,-1640,-162
1163,896,4863,-913,-1622,-274
1326,768,5097,-828,-1517,-462
1542,759,5381,-747,-1384,-641
1642,797,5725,-675,-1224,-820
1743,496,5795,-598,-1041,-979
1935,174,5836,-564,-897,-1040
2044,156,5897,-597,-776,-1003
2083,82,6042,-656,-680,-947
2101,22,6223,-697,-588,-886
2125,29,6059,-702,-487,-840
2195,-221,6077,-681,-428,-830
2297,-403,6278,-633,-347,-820
2316,-480,5908,-567,-215,-817
2383,-587,5494,-587,-148,-815
2628,-1077,5741,-652,-118,-814
2838,-1674,5918,-681,0,-744
2885,-1610,5739,-658,183,-600
2797,-1173,5732,-574,357,-529
2648,-1164,5363,-442,550,-579
2429,-1509,4694,-348,683,-632
2362,-1939,4801,-302,723,-617
2362,-1939,4801,-302,723,-617
2376,-1899,4865,-215,826,-532
2177,-1797,4270,-118,927,-511
2071,-2322,4288,-27,962,-492
1992,-2340,4304,56,1037,-379
1867,-2148,4128,176,1127,-295
1790,-2349,3911,289,1194,-260
1762,-2469,4194,404,1248,-179
1722,-1879,4057,520,1371,-61
1592,-1205,3361,551,1457,-37
1430,-1285,3680,570,1421,-146
1338,-1840,4280,745,1483,-218
1219,-1366,3080,914,1642,-163
1005,-815,2623,816,1540,-171
917,-1163,3462,716,1390,-212
884,-1443,3641,723,1412,-165
876,-1357,3359,788,1439,-77
871,-1062,3439,783,1427,12
684,-875,3208,766,1442,57
381,-667,2707,727,1404,71
76,-395,2321,640,1279,61
-196,-182,1838,544,1074,7
-247,-374,2349,454,802,-91
-132,-611,2915,430,655,-125
-95,-643,2896,473,617,-91
-133,-388,2832,486,578,-37
-156,-76,2746,451,531,-2
-213,9,2653,388,467,5
-277,-130,2454,304,381,31
-335,-16,2314,186,254,99
-439,265,2325,72,100,128
-481,319,2415,19,-40,76
-475,84,2267,-27,-158,-4
-411,-89,2233,-118,-306,-43
-353,77,2296,-219,-459,-39
-272,114,2315,-334,-615,-41
-180,-71,2556,-468,-779,-36
-100,-227,2783,-570,-896,-7
-66,-268,2611,-621,-974,29
-49,-240,2310,-697,-1097,61
-8,-154,2465,-769,-1264,55
148,-289,2832,-776,-1384,-15
344,-531,3175,-745,-1421,-64
391,-534,3158,-680,-1394,-64
407,-583,2971,-597,-1386,-79
517,-739,3194,-501,-1413,-101
678,-802,3535,-376,-1390,-116
823,-677,3612,-226,-1312,-147
910,-412,3626,-120,-1245,-188
1034,-357,3679,-79,-1204,-244
1143,-799,3787,-69,-1174,-277
1196,-694,3733,-80,-1143,-199
1153,-348,3509,-113,-1144,-150
1128,-563,3461,-134,-1185,-181
1198,-816,3578,-156,-1227,-190
1306,-853,3779,-167,-1236,-159
1345,-986,3588,-165,-1217,-122
1449,-1227,3524,-185,-1237,-76
1636,-1168,3901,-183,-1257,-20
1769,-860,4101,-141,-1202,-10
1927,-934,4300,-85,-1126,-71
2035,-1172,4441,-39,-1033,-97
2035,-1023,4344,-9,-944,-44
2050,-1026,4151,-61,-896,0
2105,-1277,4363,-187,-889,62
2054,-1498,4474,-207,-835,153
1986,-1387,4204,-93,-794,222
2001,-1626,4263,10,-805,234
2008,-1859,4193,115,-798,271
2008,-1859,4193,115,-798,271
2049,-1675,4094,178,-799,340
2186,-1700,4217,227,-803,369
2400,-1585,4247,296,-780,396
2576,-1280,4596,319,-740,405
2662,-892,4908,319,-641,380
2738,-889,4836,334,-514,331
2699,-1102,4689,308,-425,334
2508,-1288,4544,316,-373,390
2343,-1297,4237,331,-352,472
2301,-1506,4055,346,-372,535
2270,-1604,3966,390,-387,614
2275,-1177,3960,489,-408,675
2395,-866,4227,568,-397,648
2625,-714,4527,641,-330,595
2800,-463,4720,685,-202,563
2827,-344,4755,702,-47,536
2749,-350,4703,699,97,525
2690,-347,4794,696,227,536
2630,-294,4847,722,366,565
2536,-204,4589,749,503,607
2463,-119,4130,742,582,656
2320,159,3397,676,565,709
2253,682,3272,521,408,710
2390,814,4204,365,262,607
2500,567,4638,309,306,490
2470,490,4354,311,428,450
2345,497,4102,270,502,440
2209,502,4065,183,536,452
2145,526,4058,96,572,474
2056,510,4123,30,623,486
1845,593,3874,28,695,484
1563,548,3110,17,720,450
1312,537,2521,-65,603,417
1222,310,2705,-182,400,354
1277,34,3099,-245,263,317
1348,144,3120,-272,218,312
1388,106,3033,-299,182,258
1436,5,3219,-305,142,188
1438,-60,3294,-296,138,129
1396,-207,3165,-305,138,93
1364,-356,3192,-349,104,95
1337,-247,3252,-374,69,119
1337,-126,3176,-390,32,101
1355,-410,3254,-401,-15,52
1407,-637,3236,-363,-54,40
1441,-626,3147,-339,-95,52
1482,-722,3162,-336,-150,47
1605,-790,3351,-340,-194,47
1686,-641,3619,-328,-200,40
1710,-563,3745,-283,-165,-7
1719,-660,3722,-218,-115,-73
1699,-722,3610,-188,-86,-106
1646,-814,3480,-205,-94,-111
1599,-959,3542,-244,-140,-91
1593,-990,3662,-265,-173,-40
1606,-916,3670,-260,-185,-1
1665,-883,3650,-256,-196,9
1710,-875,3784,-257,-207,7
1735,-941,3892,-240,-188,-2


307,-821,3354,668,1231,69
214,-792,3483,622,1119,71
123,-890,3417,579,1047,88
57,-943,3271,495,969,143
92,-996,3301,409,877,204
186,-1123,3454,402,796,254
300,-1250,3607,397,760,339
390,-1326,3675,400,774,443
359,-1176,3672,407,815,548
216,-800,3559,458,864,610
19,-534,3235,550,905,592
-216,-232,2707,568,892,561
-422,-175,2208,515,771,499
-483,-664,2217,458,558,447
-410,-1069,2552,371,378,510
-276,-1047,2669,291,276,655
-242,-1002,2610,239,206,798
-266,-1113,2491,256,121,939
-284,-1337,2306,276,15,1106
-273,-1060,2354,251,-112,1329
-136,742,2897,283,-223,1478
-157,2399,3069,407,-226,1245
-304,2162,2705,439,-203,764
-314,931,2667,276,-253,442
-356,73,2787,95,-326,394
-557,-41,2522,-32,-395,507
-791,96,2053,-160,-527,630
-802,12,1987,-271,-745,690
-711,-86,2181,-353,-953,747
-613,126,2280,-333,-1128,785
-513,604,2388,-277,-1296,769
-315,1303,2822,-271,-1443,675
-42,2016,3311,-276,-1514,481
85,2135,3325,-315,-1500,224
33,1592,3089,-404,-1517,6
25,982,3042,-575,-1593,-68
40,648,3229,-726,-1687,-50
123,762,3351,-698,-1781,0
279,1152,3493,-659,-1868,14
402,1387,3677,-683,-1940,-45
492,1507,3752,-783,-1989,-143
591,1608,3853,-893,-2036,-281
591,1608,3853,-893,-2036,-281
748,1492,4212,-971,-2059,-460
1125,1417,4631,-954,-2019,-627
1493,1251,5395,-930,-1919,-785
1686,946,5505,-883,-1700,-903
1761,635,5068,-851,-1492,-950
1808,523,4948,-893,-1405,-928
1827,595,5263,-985,-1383,-889
1806,537,5746,-1009,-1330,-891
1908,568,6095,-923,-1199,-922
2054,311,6001,-805,-1016,-984
2173,-80,5388,-739,-871,-1001
2398,-176,5420,-739,-841,-966
2585,-366,5742,-778,-783,-934
2689,-599,5775,-789,-663,-874
2760,-671,5724,-779,-536,-794
2787,-744,5427,-774,-411,-724
2821,-840,5242,-793,-319,-670
2777,-897,5256,-817,-232,-631
2723,-966,5347,-807,-120,-613
2675,-1062,5267,-770,19,-603
2630,-1253,4950,-744,161,-592
2575,-1548,4755,-716,260,-564
2474,-1691,4628,-648,342,-525
2393,-1804,4457,-544,427,-491
2422,-2077,4472,-406,505,-456
2426,-2329,4828,-205,633,-385
2479,-1890,4518,-28,854,-290
2406,-1845,4349,100,988,-310
2417,-2323,4719,208,1128,-287
2416,-2479,4638,314,1353,-160
2260,-2291,4077,461,1549,-20
2025,-2069,3508,574,1635,58
1741,-1937,3244,661,1611,96
1509,-1785,3083,769,1543,127
1376,-1630,2799,811,1453,144
1320,-1669,3007,801,1316,138
1290,-1524,3852,868,1239,166
1307,-1006,4058,1002,1336,213
1299,-253,3091,882,1436,202
1187,-441,3118,659,1333,83
1130,-855,3871,589,1266,40
997,-894,3881,606,1338,99
848,-771,3487,637,1403,171
674,-717,3242,672,1403,209
454,-623,2780,601,1364,265
253,-403,2539,562,1246,293
124,-245,2486,564,1097,261
71,-99,2572,559,955,198
91,79,2692,537,838,119
91,-93,2625,463,759,37
96,-439,2560,376,673,6
90,-561,2757,312,581,31
44,-341,2613,298,526,74
-170,-221,2158,230,435,99
-269,189,2085,147,254,112
-377,249,2236,92,57,46
-433,73,2154,-4,-116,7
-433,-53,2039,-150,-315,26
-435,-92,2072,-353,-531,74
-402,-86,2126,-495,-749,104
-368,-78,2044,-598,-957,100
-281,-11,2117,-720,-1173,84
-122,26,2497,-804,-1369,29
68,-98,2863,-824,-1492,-42
248,-148,3118,-804,-1555,-92
381,-79,3265,-759,-1579,-140
523,-206,3339,-718,-1581,-201
739,-564,3479,-697,-1583,-235
739,-564,3479,-697,-1583,-235
947,-758,3769,-616,-1569,-225
1100,-729,3768,-501,-1498,-194
1141,-596,3514,-463,-1430,-151
1244,-432,3524,-418,-1417,-146
1327,-426,3631,-375,-1388,-169
1378,-544,3724,-387,-1346,-182
1452,-731,3930,-387,-1301,-202
1507,-795,3997,-334,-1229,-213
1524,-655,3800,-255,-1164,-218
1531,-663,3715,-201,-1150,-245
1544,-767,3586,-191,-1157,-241
1559,-915,3455,-239,-1178,-190
1611,-1217,3428,-298,-1196,-111
1597,-1206,3398,-319,-1202,-8
1585,-989,3408,-275,-1207,38
1608,-931,3481,-195,-1205,3
1645,-959,3481,-128,-1184,-44
1680,-1150,3235,-112,-1167,-61
1758,-1366,3245,-178,-1187,-30
1852,-1400,3546,-267,-1204,13
2052,-1407,4011,-199,-1167,9
2262,-1420,4307,51,-1071,-32
2335,-1279,4193,282,-948,-45
2272,-1090,3794,391,-873,-30
2287,-1217,3731,379,-877,-18
2317,-1496,3729,314,-886,24
2339,-1401,3824,284,-892,99
2459,-1262,3923,323,-886,120
2646,-1378,4221,365,-864,108
2834,-1478,4402,431,-796,131
3022,-1559,4426,507,-720,182
3166,-1609,4662,545,-642,261
3239,-1477,4824,583,-520,350
3252,-1359,4833,639,-379,409
3284,-1222,4847,665,-239,450
3228,-1305,4532,708,-109,475
3097,-1238,4269,755,-51,522
2967,-1282,4091,752,-13,566
2881,-1316,3917,763,2,617
2911,-962,3854,775,10,660
3098,-721,4088,825,10,630
3271,-774,4397,851,61,596
3309,-764,4478,876,166,617
3274,-510,4526,885,275,678
3230,-221,4556,880,391,720
3222,-239,4446,862,510,735
3247,-352,4363,822,612,783
3122,-21,4277,756,697,877
2904,410,4037,708,760,915
2622,827,3506,604,770,897
2506,846,3439,438,677,821
2443,395,3651,288,596,750
2379,281,3661,197,575,770
2315,475,3617,147,571,790
2298,637,3697,106,578,758
2316,612,3855,50,618,695
2235,505,3811,22,690,648
2030,586,3487,1,752,622
1827,664,3224,-75,750,597
1686,646,3172,-180,702,555
1536,389,3216,-256,655,504
1385,224,3189,-305,626,506
1228,329,2856,-327,590,518
1107,380,2668,-349,496,476
1061,104,2733,-384,387,402
1090,-142,2845,-395,302,368
1124,-44,3005,-398,241,369
1114,17,3049,-411,204,337
1126,-275,2843,-425,168,289
1126,-275,2843,-425,168,289
1187,-545,2818,-441,89,279
1244,-609,3016,-436,8,288
1227,-571,3060,-414,-36,288
1157,-525,3105,-394,-82,260
1083,-580,3042,-368,-130,206
1086,-770,3008,-337,-194,143
1201,-937,3184,-314,-272,115
1458,-992,3526,-284,-311,119
1629,-824,3800,-250,-290,130
1656,-634,3873,-192,-227,97
1650,-661,3809,-126,-161,24
1630,-857,3760,-88,-121,-30
1644,-1011,3627,-60,-113,-32
1680,-1016,3554,-60,-142,0
1764,-986,3697,-48,-188,16
1838,-953,3860,-9,-198,9
1852,-925,3819,35,-178,-5
1812,-956,3673,35,-170,-10


1354,-1082,5160,384,564,-289
1360,-1231,5202,441,667,-277
1349,-1294,5214,459,783,-235
1342,-1141,5249,457,894,-168
1366,-1029,5205,477,1016,-133
1331,-1154,4967,499,1137,-126
1224,-1030,4577,513,1206,-94
1138,-883,4318,514,1199,-88
1097,-1254,4328,475,1167,-120
1045,-1524,4347,427,1152,-82
990,-1419,4191,411,1150,-3
923,-1402,3966,363,1139,56
847,-1418,3939,326,1098,110
847,-1418,3939,326,1098,110
787,-1472,3956,309,1074,155
787,-1451,3991,286,1078,215
766,-1230,4111,273,1100,262
705,-1062,4186,289,1150,269
668,-1174,4148,361,1221,253
525,-1446,3844,412,1291,283
331,-1534,3505,446,1310,363
81,-1470,3038,485,1281,445
-133,-1432,2631,487,1181,508
-297,-1547,2591,500,1017,545
-363,-1326,2729,540,867,607
-386,-791,2720,570,766,658
-438,-604,2519,549,679,651
-466,-853,2270,471,565,653
-472,-1005,2171,345,426,739
-538,-1006,1990,277,281,834
-549,-1021,1856,272,112,918
-384,-711,1950,252,-65,1007
-257,-661,2228,312,-226,1040
-138,-547,2459,424,-316,1085
-187,8,2193,427,-358,1143
-336,1102,1968,289,-465,1132
-476,1562,2012,142,-616,934
-508,939,2018,-5,-769,704
-489,371,2505,-54,-936,613
-509,520,2663,60,-1026,627
-513,944,2145,106,-1112,641
-413,1154,2079,-47,-1306,623
-281,1056,2368,-279,-1502,610
-217,884,2424,-486,-1641,636
-182,808,2370,-671,-1780,683
-56,830,2515,-813,-1943,716
124,1111,2861,-903,-2087,700
284,1619,3472,-914,-2173,575
430,2227,4386,-884,-2130,305
439,1953,4374,-666,-1937,-81
433,1514,3920,-450,-1806,-389
511,1450,3808,-433,-1792,-570
685,1597,4122,-526,-1832,-702
874,1412,4481,-597,-1846,-832
967,1063,4347,-638,-1829,-895
1093,932,4109,-708,-1872,-876
1362,1088,4330,-780,-1983,-858
1877,1103,5460,-875,-2057,-894
2224,640,7023,-1026,-1916,-946
2186,692,7174,-1002,-1488,-954
2249,691,6341,-852,-1059,-1042
2356,540,6051,-728,-800,-1169
2462,244,6002,-632,-600,-1286
2516,-390,5915,-580,-411,-1336
2464,-784,5764,-541,-253,-1247
2326,-864,5455,-490,-146,-1075
2229,-734,4993,-462,-109,-883
2231,-804,4851,-493,-167,-749
2367,-1067,5224,-500,-229,-634
2571,-1040,5500,-458,-181,-510
2753,-826,5623,-387,-43,-439
2908,-871,5830,-287,155,-455
2975,-1121,5721,-163,428,-493
2872,-1148,5581,-35,694,-498
2665,-1118,5309,101,946,-518
2434,-1321,4807,250,1153,-563
2208,-1711,4315,385,1260,-563
2054,-1596,4050,489,1285,-479
1893,-1474,3763,522,1268,-414
1741,-1622,3684,526,1193,-365
1681,-1928,3782,531,1130,-297
1718,-2272,4204,568,1136,-191
1718,-2272,4204,568,1136,-191
1810,-1832,4211,641,1244,-49
1797,-1047,4016,622,1330,-25
1729,-792,4573,579,1406,-115
1664,-1105,4818,644,1591,-214
1469,-1586,4304,781,1784,-224
1212,-1630,4152,869,1872,-133
1049,-1324,4039,1012,1946,-39
831,-799,3195,978,1995,57
455,-207,2377,990,1836,41
186,-654,2061,758,1558,-31
239,-1131,2694,605,1247,-35
396,-1000,3335,553,1088,41
460,-629,3321,533,1062,101
467,-208,3133,517,1014,116
487,-72,3156,403,943,98
495,-145,3127,288,886,91
434,-42,3109,213,823,109
277,10,3112,183,760,105
71,124,2979,230,711,82
-158,109,2537,259,654,49
-391,34,2023,179,524,58
-569,-39,1856,42,304,89
-586,-56,2118,-68,76,118
-439,2,2288,-128,-93,141
-316,9,2311,-209,-228,166
-312,17,2240,-338,-361,201
-369,273,2320,-445,-510,215
-462,598,2278,-521,-654,174
-464,639,2123,-649,-818,97
-398,412,2206,-824,-1028,36
-351,189,2307,-977,-1226,22
-309,50,2130,-1123,-1413,52
-167,-133,2303,-1256,-1643,78
95,-411,2870,-1282,-1824,79
410,-626,3153,-1243,-1880,111
692,-418,3157,-1221,-1875,182
942,-145,3333,-1224,-1872,181
1066,-360,3820,-1134,-1832,49
1082,-956,3752,-908,-1694,-98
1093,-1218,3413,-708,-1561,-140
1164,-1074,3385,-593,-1501,-137
1237,-939,3677,-490,-1466,-165
1214,-949,3676,-425,-1391,-187
1263,-989,3648,-382,-1337,-182
1330,-1024,3760,-338,-1311,-143
1393,-956,3786,-333,-1275,-72
1415,-853,3693,-329,-1240,0
1480,-738,3568,-329,-1234,42
1539,-780,3516,-391,-1251,68
1538,-1036,3496,-454,-1273,99
1519,-1261,3630,-418,-1302,130
1504,-1452,3395,-362,-1295,164
1523,-1617,3286,-330,-1306,211
1527,-1476,3118,-278,-1314,269
1586,-1275,2791,-251,-1341,288
1708,-1271,3066,-295,-1408,258
1835,-1201,3507,-378,-1404,224
1886,-1297,3822,-381,-1344,184
2021,-1458,4083,-291,-1266,188
2141,-1552,4252,-198,-1173,238
2019,-1789,3747,-77,-1089,298
1986,-1910,3323,-3,-1122,380
2178,-1962,3567,12,-1215,455
2371,-1888,3555,62,-1251,508
2593,-1952,3496,90,-1265,532
2841,-2198,3884,148,-1244,536
3063,-1946,4135,323,-1129,545
3235,-1484,4159,496,-968,495
3295,-1463,4268,628,-818,397
3295,-1463,4268,628,-818,397
3273,-1569,4120,684,-678,361
3300,-1671,4175,711,-600,379
3410,-1667,4406,764,-526,421
3575,-1469,4540,809,-423,484
3783,-1374,4602,856,-294,533
3970,-1147,4668,905,-187,585
3975,-934,4730,894,-57,624
3930,-672,4621,860,67,638
3922,-682,4729,778,170,624
3874,-692,4804,698,279,663
3820,-494,4728,624,392,724
3752,-462,4546,531,481,763
3711,-606,4538,429,533,815
3614,-661,4732,326,604,908
3406,-447,4868,299,731,988
3197,-352,4668,338,896,1012
3016,-308,4165,382,1030,1024
2704,476,3218,360,1065,1046
2421,966,2909,248,932,911
2259,-56,3472,92,787,696
2113,-602,3459,60,769,686
1949,-184,3009,53,751,775
1823,165,2939,-23,661,782
1757,-181,3027,-115,574,729
1752,-275,3033,-179,510,739
1738,-15,3109,-226,453,751
1768,130,3157,-280,419,707
1791,-33,3352,-345,395,632
1800,-147,3382,-388,393,590
1764,-61,3253,-427,376,562
1669,-121,3186,-469,335,508
1613,-274,3148,-528,281,465
1523,-477,3091,-595,224,446
1420,-668,2963,-653,152,461
1380,-729,3000,-726,60,490
1347,-686,3116,-758,-9,484
1301,-752,2919,-754,-51,435
1307,-926,2882,-790,-120,378
1319,-1173,3126,-799,-179,332
1327,-1198,3365,-737,-177,304
1309,-1117,3166,-615,-132,254
1243,-1165,2888,-535,-113,188
1191,-1318,2821,-511,-142,121
1196,-1538,2724,-481,-192,81
1233,-1729,2722,-460,-258,86
1281,-1839,2873,-418,-322,100
1285,-1927,3000,-330,-354,102


807,-844,4208,597,1658,-98
597,-1111,3747,558,1630,-116
395,-1200,3449,524,1520,-82
275,-877,3444,481,1359,-16
368,-509,3634,446,1213,-4
525,-531,3826,360,1139,-48
696,-1014,3997,271,1130,-85
690,-1507,4050,166,1173,-20
494,-1456,3992,65,1249,133
209,-1252,3824,104,1319,231
-44,-1142,3539,251,1359,265
-298,-1140,2996,365,1361,293
-556,-1267,2285,461,1260,322
-641,-1343,1966,472,1037,381
-606,-1301,1958,420,773,452
-559,-1056,2198,415,508,526
-488,-539,2246,461,275,565
-395,81,2776,426,55,523
-305,-92,4158,456,29,416
-250,-546,3973,684,248,374
-195,-388,3402,853,389,420
-278,-438,3080,851,438,435
-446,-666,2957,869,448,457
-605,-720,2583,939,444,518
-742,-675,2093,930,384,603
-838,-458,2020,851,250,690
-880,60,2149,790,118,743
-832,242,1980,700,23,740
-722,109,1937,555,-112,753
-606,13,2109,364,-274,827
-554,21,2405,163,-409,946
-583,344,2533,59,-489,1054
-696,821,2400,59,-552,1071
-802,1074,2236,69,-646,981
-839,971,2066,15,-775,854
-782,731,1686,-147,-939,800
-656,757,2305,-436,-1170,815
-624,527,2691,-445,-1272,828
-528,549,1930,-391,-1327,870
-444,509,1474,-548,-1528,896
-344,762,1784,-740,-1808,915
-92,1251,2064,-893,-2026,885
232,1661,2558,-1052,-2207,779
559,1958,3295,-1152,-2330,605
754,2140,3872,-1249,-2347,400
895,2078,4700,-1295,-2290,159
888,1768,5165,-1254,-2070,-58
808,1647,4391,-1187,-1813,-184
773,1615,3991,-1182,-1743,-304
823,1500,4149,-1129,-1773,-462
950,1770,4470,-1077,-1785,-591
1127,1538,4611,-1016,-1776,-741
1346,1386,4661,-1019,-1774,-800
1527,1222,4335,-1180,-1768,-800
1527,1222,4335,-1180,-1768,-800
1632,717,4262,-1459,-1846,-786
1551,571,4466,-1672,-1938,-744
1531,930,4409,-1709,-1992,-733
1776,802,4757,-1684,-2049,-848
2014,283,5334,-1707,-2019,-953
2124,37,5550,-1715,-1882,-969
2361,111,5568,-1631,-1706,-992
2649,-32,6239,-1509,-1507,-1101
2808,-366,6581,-1274,-1183,-1218
2817,-560,5859,-990,-829,-1254
2922,-644,5269,-823,-643,-1235
3154,-974,5513,-781,-572,-1192
3317,-1222,5606,-756,-462,-1071
3294,-1143,5287,-752,-346,-903
3295,-887,5516,-758,-262,-797
3271,-1029,5964,-762,-96,-793
3131,-1273,5741,-691,166,-784
2969,-1264,5093,-613,389,-738
2924,-1285,4833,-555,505,-736
2899,-1808,4834,-512,604,-753
2780,-2180,4726,-420,717,-673
2641,-1986,4816,-283,832,-541
2500,-1640,4633,-129,973,-476
2426,-1759,4030,4,1064,-491
2467,-2150,4136,69,1058,-471
2550,-2376,4725,178,1099,-384
2588,-2219,5086,363,1269,-272
2550,-2233,5246,568,1522,-223
2471,-2393,5228,833,1805,-165
2479,-2685,5395,1142,2106,-61
2509,-2521,5067,1468,2450,96
2293,-1317,3243,1604,2711,218
1828,-740,2317,1446,2605,118
1537,-1406,3037,1303,2346,-75
1441,-2189,3682,1357,2263,-145
1368,-2306,3451,1464,2298,-54
1333,-1949,3219,1487,2287,81
1324,-1453,3136,1387,2231,191
1376,-1003,3351,1264,2159,239
1379,-1050,3177,1028,2130,248
1279,-1315,3405,897,2062,257
1007,-986,3389,925,2042,295
493,-27,2535,974,2019,268
20,189,1828,839,1827,112
-43,-241,2257,656,1511,-26
20,-591,2913,547,1298,-36
-69,-495,2818,467,1220,63
-309,-145,2328,394,1130,145
-493,-36,2053,284,962,152
-547,-162,2115,180,761,140
-506,-142,2484,109,593,158
-491,26,2849,102,509,167
-685,198,2651,161,488,138
-1004,600,2240,207,409,104
-1212,821,1941,197,236,31
-1233,706,1976,103,9,-42
-1131,644,2331,-11,-192,-82
-1086,527,2374,-89,-326,-100
-1122,424,1939,-175,-469,-71
-1114,353,1675,-336,-697,-8
-977,350,2029,-506,-965,39
-727,246,2712,-572,-1156,27
-431,395,3106,-553,-1218,-1
-215,684,2936,-513,-1228,-72
-32,748,2803,-546,-1285,-191
71,233,2954,-626,-1372,-316
70,-415,3211,-668,-1435,-344
-25,-360,2955,-643,-1460,-272
-25,-360,2955,-643,-1460,-272
-28,-384,2684,-683,-1535,-215
150,-572,3005,-721,-1652,-186
280,-411,3371,-708,-1711,-135
309,-66,3560,-623,-1708,-138
428,-310,3346,-553,-1681,-218
668,-677,3605,-494,-1698,-254
960,-736,3961,-387,-1669,-216
1129,-685,3876,-304,-1581,-152
1205,-412,3895,-275,-1519,-94
1282,-202,3862,-262,-1468,-89
1321,-427,3717,-293,-1441,-119
1289,-702,3500,-327,-1443,-113
1280,-851,3477,-345,-1487,-82
1294,-698,3561,-372,-1529,-44
1345,-739,3692,-373,-1544,-51
1504,-1047,3937,-326,-1535,-57
1679,-1142,4056,-258,-1481,0
1781,-1013,4195,-206,-1395,59
1874,-1250,4254,-124,-1286,88
1924,-1363,4140,-37,-1163,181
2011,-1096,3888,64,-1071,286
2036,-1070,3675,121,-1029,328
2028,-909,3562,89,-1022,363
2089,-760,3703,-7,-1047,355
2215,-1010,4197,-89,-1040,323
2299,-1447,4379,28,-974,326
2348,-1573,4205,171,-899,430
2255,-1372,3850,244,-866,575
2144,-1127,3735,251,-890,664
2147,-1039,3901,223,-917,689
2273,-740,4382,238,-896,673
2369,-664,4570,336,-787,587
2434,-1120,4286,453,-665,514
2448,-1411,4133,500,-598,550
2457,-1292,4006,539,-552,637
2606,-1080,3993,577,-534,683
2844,-968,4464,614,-513,690
2947,-594,4814,671,-411,698
2949,-162,4759,702,-272,682
2949,-146,4577,651,-173,646
2880,-271,4512,548,-127,649
2795,-278,4486,458,-101,688
2762,-310,4635,445,-105,700
2713,-350,5082,450,-61,718
2706,-229,5268,506,60,750
2766,157,5323,570,213,761
2889,140,5262,587,383,728
3037,59,5306,565,531,746
3096,361,5467,538,698,808
2972,550,5352,494,890,843
2810,477,5192,435,1064,862
2562,494,4824,379,1218,900
2291,714,4256,295,1309,944
2003,792,3741,205,1307,933
1626,930,2877,153,1208,897
1444,773,2480,44,963,814
1491,316,2981,-122,694,752
1527,210,3389,-231,560,764
1490,313,3194,-280,522,770
1475,145,3078,-330,476,722
1455,59,3279,-362,437,664
1369,117,3198,-340,449,589
1277,73,2979,-349,429,499
1223,-151,3182,-405,369,429
1148,-303,3245,-426,329,405
1079,-297,3076,-422,277,408
1044,-300,2824,-438,185,397
1024,-480,2732,-482,50,373
1070,-619,2859,-519,-93,363
1070,-619,2859,-519,-93,363
1197,-634,3052,-547,-211,368
1292,-634,3195,-561,-296,376
1342,-764,3245,-564,-363,383
1390,-906,3276,-568,-423,402
1460,-795,3492,-572,-467,425
1566,-722,3828,-545,-459,388


1250,-261,4873,492,434,-624
1053,-23,4914,356,464,-489
998,7,4994,450,496,-533
1010,-301,5030,553,548,-598
1031,-601,5094,629,597,-610
922,-857,5007,665,644,-557
870,-693,5026,633,671,-432
925,-98,5025,557,695,-315
1029,170,4797,436,709,-298
1106,8,4698,292,677,-328
1118,-192,4716,181,623,-327
1188,-173,4827,76,578,-270
1305,53,4995,-71,582,-190
1318,185,4937,-248,623,-126
1282,-15,4919,-404,655,-89
1201,-322,5143,-375,688,-79
1024,-579,5047,-224,792,-83
810,-963,4564,-104,919,-70
810,-963,4564,-104,919,-70
599,-1156,3955,-24,968,-4
397,-1097,3598,-18,924,83
398,-784,3615,-44,846,145
586,-667,3757,-13,793,128
820,-795,3834,3,797,92
1007,-1130,4000,-19,833,88
1009,-1246,4018,-33,890,176
858,-906,3784,-63,937,309
668,-758,3509,-125,935,394
509,-1002,3312,-198,876,476
334,-1325,3179,-280,790,621
178,-1316,3084,-314,701,793
43,-742,2867,-362,622,909
98,5,2953,-313,527,819
209,-131,3196,-134,481,501
300,-1059,3212,19,509,255
415,-1543,3151,140,542,252
422,-1543,2987,163,571,414
374,-1410,2787,133,584,627
177,-1187,2575,142,571,797
-60,-1268,2105,170,526,909
-265,-1696,1673,141,402,1059
-589,-1291,1482,17,207,1333
-962,-300,1337,-151,-17,1558
-1176,15,1210,-284,-294,1613
-1096,140,1439,-360,-592,1580
-901,134,1745,-311,-839,1434
-626,371,2187,-156,-1039,1257
-312,873,2628,41,-1168,1062
83,974,3072,185,-1219,862
436,1105,3580,207,-1198,763
515,1327,3688,172,-1120,739
442,1198,3462,71,-1048,760
413,1184,3110,-104,-1037,858
242,1350,2696,-357,-1110,951
41,1402,2282,-558,-1284,961
-76,1242,1853,-702,-1541,882
113,1214,2266,-842,-1855,750
456,1546,3424,-851,-2068,549
786,2108,4321,-642,-2065,255
1146,2313,4790,-398,-1913,-116
1465,1899,5291,-296,-1697,-452
1606,1421,5283,-283,-1423,-632
1451,1045,4793,-340,-1198,-676
1203,940,4455,-438,-1107,-635
901,1193,3890,-535,-1112,-599
791,1531,3476,-691,-1242,-639
921,1341,3793,-922,-1443,-738
1138,1060,4118,-1072,-1606,-793
1511,879,4518,-1159,-1710,-824
1948,803,5398,-1175,-1714,-873
2124,670,6010,-1101,-1560,-950
2235,617,6266,-994,-1300,-1032
2388,822,6709,-819,-1000,-1151
2431,919,6621,-620,-629,-1333
2412,707,5814,-520,-314,-1501
2290,-80,5058,-557,-201,-1572
2127,-918,4715,-703,-252,-1449
2067,-1169,4848,-849,-391,-1170
2061,-1014,5087,-981,-514,-872
2113,-1013,5117,-1049,-577,-643
2423,-1190,5547,-1053,-596,-474
2781,-1264,6406,-1040,-460,-339
3068,-933,6699,-954,-93,-262
3389,-392,6590,-805,371,-337
3386,-997,6119,-632,853,-569
3062,-1945,5539,-472,1264,-676
2677,-2224,5325,-282,1558,-608
2677,-2224,5325,-282,1558,-608
2347,-2221,4989,-72,1786,-490
2102,-2212,4741,92,1959,-373
1880,-2323,4716,283,2096,-281
1708,-2265,4797,497,2250,-192
1538,-2030,4460,771,2429,-139
1468,-2086,3756,1038,2562,-158
1349,-2148,3328,1204,2581,-148
1187,-1707,2922,1395,2520,-130
1076,-1361,2948,1516,2389,-179
906,-1199,2974,1587,2255,-251
692,-1219,2693,1463,2141,-257
638,-1295,2955,1521,1956,-285
441,-1244,3053,1663,1842,-298
120,-972,2545,1516,1815,-224
40,-363,2033,1408,1695,-208
-71,-367,1575,1248,1462,-276
-235,-671,1487,1012,1141,-294
-276,-666,1936,778,829,-235
-173,-468,2388,659,616,-171
-122,-407,2472,624,501,-130
-183,-526,2260,554,408,-70
-221,-565,2190,420,284,28
-221,-399,2409,283,157,126
-243,-182,2431,215,69,189
-334,-55,2135,109,-15,232
-478,413,1962,-34,-176,266
-589,834,1616,-196,-382,218
-603,476,1209,-416,-665,110
-629,-88,988,-732,-1037,96
-569,-114,1184,-1098,-1456,190
-287,-295,1731,-1444,-1819,264
55,-688,2178,-1669,-2068,340
276,-501,2304,-1767,-2230,429
420,-186,2328,-1792,-2347,398
569,-416,2627,-1695,-2445,230
830,-656,3670,-1471,-2478,55
959,-674,4624,-1122,-2313,-78
821,-791,3930,-777,-2008,-164
918,-892,3467,-625,-1862,-194
935,-923,3716,-535,-1817,-205
767,-954,3386,-457,-1727,-185
823,-716,2979,-359,-1721,-168
1070,-412,2776,-327,-1816,-191
1451,-666,3029,-470,-1950,-224
1857,-1024,4131,-619,-2016,-192
1838,-1084,4430,-524,-1893,-136
1696,-876,3938,-383,-1753,-91
1660,-960,3795,-329,-1714,-89
1663,-1391,3725,-304,-1697,-65
1711,-1555,3737,-239,-1677,15
1854,-1540,3852,-162,-1648,85
2139,-1691,4186,-58,-1604,120
2451,-2006,4258,110,-1496,179
2591,-1944,3949,213,-1372,326
2600,-1459,3961,202,-1306,471
2538,-1039,4026,198,-1250,489
2547,-1013,3983,214,-1204,391
2768,-1300,4528,239,-1173,292
3082,-1594,5006,298,-1049,280
3264,-1752,4821,380,-858,360
3295,-1737,4586,435,-720,497
3305,-1642,4581,474,-623,621
3308,-1641,4559,516,-536,716
3340,-1374,4640,527,-447,813
3462,-1336,4715,617,-347,848
3568,-1312,4770,683,-230,897
3510,-1023,4739,735,-94,951
3534,-726,4746,800,36,952
3649,-749,4940,856,183,910
3695,-615,5185,896,374,897
3695,-615,5185,896,374,897
3628,-411,5354,933,608,893
3493,-382,5322,1012,857,867
3367,-391,5108,1058,1097,856
3264,-206,4918,1053,1287,882
3159,75,4965,998,1437,912
3073,304,5129,924,1599,927
2935,408,5172,881,1796,923
2745,409,4684,889,1998,924
2509,515,4141,920,2117,921
2143,550,3280,1010,2121,892
1764,678,2019,1045,1951,888
1496,873,1412,903,1549,880
1419,760,1842,617,1081,833
1404,580,2589,386,751,781
1371,676,3075,287,592,732
1317,656,3147,252,546,647
1248,491,2968,209,525,561
1183,490,2887,144,476,501
1173,609,2872,62,417,433
1173,547,2961,-50,354,345
1117,389,3020,-147,289,280
1101,293,2911,-181,208,241
909,-53,2620,-307,101,235
897,-214,2570,-482,-47,293
968,-376,2639,-613,-219,342
1054,-655,2754,-706,-390,394
1215,-842,3128,-752,-541,475
1349,-704,3513,-728,-608,567
1418,-246,3661,-711,-598,617
1522,203,3752,-732,-562,572
1602,128,3857,-772,-496,423
1602,-278,3860,-740,-414,254
1553,-559,3849,-627,-347,127
1486,-644,3754,-480,-290,26
1423,-756,3553,-367,-256,-47
1373,-923,3361,-326,-272,-83
1328,-1018,3349,-362,-334,-69
1383,-1052,3600,-389,-405,-35
1544,-1081,3971,-351,-430,0
1628,-1082,4103,-268,-389,30
1627,-962,4022,-172,-327,56


-633,-708,2351,-111,-1221,-360
-286,-1182,2359,-189,-1404,-338
72,-1658,2894,-394,-1567,-228
312,-1668,3622,-468,-1619,-91
302,-1915,3749,-399,-1540,3
194,-1823,3464,-230,-1465,120
204,-1290,3280,-95,-1456,221
292,-895,3072,3,-1494,240
434,-1009,2667,-31,-1573,239
694,-1397,2792,-203,-1724,291
969,-1808,3306,-348,-1832,386
1285,-2050,3776,-332,-1843,494
1692,-1980,4520,-190,-1778,599
1874,-1469,5308,55,-1599,659
1831,-1110,5090,410,-1303,618
1734,-989,4664,712,-1092,541
1755,-563,4669,872,-992,512
1817,-182,4918,926,-905,479
1869,-219,5112,938,-799,446
1920,-133,5291,935,-691,475
1924,234,5555,922,-571,526
1875,497,5686,977,-429,537
1898,1052,5681,1044,-291,551
1900,1405,5772,1043,-168,516
1886,1153,5685,1023,-49,474
1995,921,5783,992,40,511
2062,1121,5901,992,135,602
2057,1634,5917,957,249,687
2053,1735,5750,873,348,727
2080,1657,5714,754,409,782
2219,2242,6119,650,492,819
2276,2604,6321,672,662,678
2255,2523,6086,735,873,451
2183,2442,5987,744,1053,258
2011,2485,5742,787,1218,81
1776,2339,5161,779,1345,-60
1514,1836,4803,658,1377,-119
1321,1479,4674,544,1358,-64
1119,1169,4588,443,1341,55
906,1314,4412,412,1326,232
673,1705,4080,397,1298,375
487,2214,3747,336,1230,475
475,2825,3541,180,1141,507
606,3022,3686,2,1068,396
704,2778,3712,-73,1048,187
724,2494,3780,-106,1060,4
770,2562,3965,-83,1121,-138
727,2563,3618,-23,1225,-323
598,2468,3208,-13,1274,-497
509,2592,3092,-109,1275,-628
391,2512,3021,-253,1280,-765
279,2349,3028,-359,1282,-886
102,2056,2931,-443,1303,-981
-155,1671,2799,-444,1306,-1045
-368,1544,2689,-388,1293,-1069
-550,1798,2575,-280,1268,-1106
-688,2116,2519,-79,1231,-1240
-815,1811,2156,19,1217,-1418
-922,909,1827,-67,1140,-1456
-922,909,1827,-67,1140,-1456
-951,795,1779,-202,980,-1296
-896,1515,1913,-421,830,-1122
-830,1732,2077,-472,713,-1196
-833,930,2000,-388,617,-1415
-855,-66,2051,-334,503,-1523
-885,-444,2218,-280,389,-1478
-986,-329,2226,-242,297,-1373
-1116,-154,2085,-219,198,-1296
-1229,-240,1818,-260,77,-1248
-1378,-550,1631,-418,-77,-1172
-1547,-764,1578,-558,-293,-1037
-1592,-791,1597,-624,-536,-875
-1427,-906,1690,-724,-775,-730
-1207,-1184,2194,-864,-998,-614
-953,-1292,2762,-950,-1129,-474
-744,-1335,3010,-1068,-1143,-324
-646,-1400,3321,-1087,-1122,-227
-748,-1390,3183,-912,-1075,-194
-850,-1350,2801,-758,-1066,-166
-828,-1310,2559,-629,-1145,-151
-737,-1314,2421,-547,-1282,-134
-532,-1423,2797,-537,-1458,-109
-337,-1258,3376,-527,-1568,-50
-50,-1222,3784,-414,-1568,-29
214,-1386,4070,-251,-1519,-19
368,-1015,4287,-196,-1418,80
394,-98,4286,-152,-1294,142
396,446,4097,-69,-1212,30
369,20,3796,-30,-1200,-150
419,-733,4008,-93,-1254,-205
503,-927,4461,-140,-1264,-90
528,-667,4497,-112,-1189,59
524,-465,4121,-31,-1128,145
560,-634,3769,-35,-1133,195
660,-531,3830,-128,-1191,290
776,-197,4002,-216,-1223,352
868,-236,4146,-251,-1215,304
1005,-355,4495,-178,-1189,207
1101,-533,4717,-55,-1096,120
1198,-484,4708,10,-964,112
1271,-321,4736,21,-850,146
1261,-212,4848,31,-758,176
1269,-158,5168,53,-677,191
1297,115,5499,116,-583,199
1317,256,5645,153,-457,173
1263,7,5517,193,-346,146
1160,-190,5268,218,-287,179
1133,-150,5062,203,-267,255
1266,81,5141,178,-271,318
1439,488,5430,182,-246,318
1486,679,5514,243,-158,224
1472,488,5342,309,-57,110
1431,283,5145,303,11,66
1415,169,5207,233,52,78
1359,112,5225,172,113,123
1214,68,5018,148,182,178
1056,106,4762,146,224,222
910,178,4402,128,241,251
827,116,4036,63,216,277
830,280,4007,-15,151,308
786,598,3850,-35,106,266
737,299,3595,-49,51,140
736,-270,3718,-98,-18,61
765,-313,3840,-77,-47,69
711,35,3662,-4,-45,76
612,-37,3333,34,-64,23
600,-347,3267,16,-125,0
652,-405,3309,12,-180,29
712,-512,3311,16,-216,75
712,-512,3311,16,-216,75
679,-457,3247,19,-248,146
568,-166,2932,31,-287,188
488,9,2511,28,-380,147
535,-197,2524,-56,-532,70
646,-462,2954,-120,-670,32
797,-611,3512,-66,-724,39
857,-636,3301,61,-690,82
927,-572,3061,80,-700,150
978,-354,3565,50,-749,197
1028,-373,3462,201,-713,164
1111,-857,3039,293,-703,149
1281,-867,3248,240,-760,252
1411,-409,3663,234,-779,341
1478,-74,3839,314,-745,338
1499,16,3757,376,-697,298
1459,-88,3605,400,-674,260
1426,-105,3444,398,-692,269
1441,66,3453,353,-753,308
1555,312,4002,289,-826,333
1752,369,4570,324,-816,331
1857,406,4665,403,-721,354
1938,769,4691,431,-620,403
2060,1141,4812,384,-520,410
2184,1203,5001,323,-409,369
2195,1095,5025,293,-286,336
2130,1085,4916,287,-174,343
2057,1138,4785,284,-84,355
1964,1002,4647,253,-11,344
1885,852,4540,232,46,347
1813,667,4345,214,93,364
1763,537,4240,160,123,400
1730,467,4220,104,153,434
1707,316,4046,88,187,445
1726,379,3998,61,200,460
1729,668,3982,13,219,447
1709,695,3709,-43,244,351
1630,480,3454,-148,226,244
1532,257,3414,-260,160,172
1473,62,3489,-359,99,126
1414,-112,3640,-448,61,111
1282,-173,3767,-439,41,106
1117,-135,3705,-325,33,89
1024,-60,3546,-219,9,61
1023,60,3674,-192,-48,34
1139,187,4151,-191,-81,14
1257,257,4321,-139,-38,-7
1308,279,4152,-94,15,-13
1302,203,3957,-108,27,0
1352,82,3936,-160,-3,38
1423,14,4114,-226,-40,102
1430,102,4206,-260,-40,163
1350,298,4072,-256,-23,189
1288,353,3810,-262,-22,148
1276,40,3651,-289,-58,78
1309,-312,3698,-312,-115,57
1343,-380,3898,-315,-153,95
1344,-288,3958,-314,-136,136
1313,-256,3766,-265,-108,134
1278,-322,3534,-228,-125,114
1278,-380,3536,-243,-182,118
1362,-253,3679,-262,-230,133
1487,-23,3957,-239,-247,96
1545,-232,4154,-166,-200,16
1627,-510,4043,-59,-132,-7
1620,-544,3726,-9,-94,27
1565,-467,3597,-62,-96,84
1502,-408,3600,-107,-119,122
1479,-345,3597,-100,-148,130
1479,-345,3597,-100,-148,130
1501,-280,3666,-71,-176,113


1673,-265,5661,227,435,-172
1752,-427,5801,246,544,-176
1838,-461,6004,255,673,-154
1892,-413,6044,261,837,-129
1884,-537,5911,265,999,-102
1858,-687,5852,263,1139,-58
1820,-859,5881,302,1281,-21
1703,-856,5725,400,1443,8
1544,-736,5421,540,1577,13
1391,-704,5167,629,1659,-9
1266,-680,5149,655,1716,-34
1090,-748,4878,694,1786,-64
845,-1001,4437,675,1824,-61
601,-942,4236,603,1808,1
389,-791,3913,607,1775,26
228,-1077,3391,598,1705,19
227,-1249,3250,512,1558,77
339,-1258,3337,424,1413,158
405,-1451,3323,347,1319,235
385,-1486,3132,286,1247,343
342,-1361,3027,282,1163,430
392,-1374,2981,332,1095,465
402,-1461,2913,355,1057,492
273,-1243,2695,412,1031,539
55,-1222,2318,421,991,573
-208,-1426,2065,388,900,622
-435,-1473,1904,408,772,707
-623,-1445,1730,453,633,805
-726,-1130,1573,475,480,923
-768,-533,1530,455,309,1030
-805,159,1544,421,126,1085
-808,437,1437,341,-59,1100
-775,365,1453,179,-273,1135
-749,352,1610,-7,-478,1201
-750,294,1608,-139,-657,1247
-719,339,1529,-206,-844,1279
-650,626,1706,-218,-1059,1275
-501,896,2065,-112,-1256,1177
-278,850,2442,-12,-1384,1021
5,1098,2755,41,-1442,908
245,1593,3054,65,-1447,797
316,2235,2945,-21,-1411,668
255,2220,2654,-173,-1438,473
94,1702,2365,-337,-1572,296
94,1702,2365,-337,-1572,296
-22,1361,2421,-525,-1779,220
55,1537,2861,-632,-1992,199
254,1882,3263,-684,-2157,153
475,2042,4169,-747,-2270,46
646,2145,4620,-699,-2228,-92
873,1917,4486,-622,-2127,-243
1238,1767,4544,-618,-2074,-338
1468,1867,4671,-702,-2028,-397
1613,1749,4843,-783,-1972,-494
1742,1416,4999,-883,-1890,-579
1832,1449,5161,-950,-1787,-614
1799,1458,5149,-1016,-1679,-669
1690,1214,5131,-1072,-1600,-737
1813,1012,5364,-1070,-1533,-790
1998,775,5665,-1055,-1427,-833
2184,429,5702,-996,-1276,-860
2311,312,5817,-910,-1124,-850
2493,367,6114,-817,-937,-858
2744,427,6384,-674,-676,-920
2926,431,6370,-442,-371,-1042
2914,29,5805,-285,-78,-1158
2940,-488,5424,-277,103,-1179
2986,-931,5557,-316,226,-1099
2911,-1278,5469,-346,370,-926
2832,-1176,5471,-339,504,-716
2840,-1074,5850,-257,667,-606
2777,-1028,5960,-116,932,-577
2660,-1163,5630,63,1236,-606
2692,-1585,5559,259,1494,-639
2745,-1831,5426,481,1755,-613
2699,-1799,5253,627,2015,-535
2625,-1816,5202,822,2263,-499
2430,-2041,4906,1069,2526,-482
2045,-1643,3829,1323,2718,-407
1460,-1233,2376,1217,2700,-324
1037,-1154,2203,1089,2388,-325
739,-1232,2513,1014,2072,-351
535,-1152,2634,921,1862,-325
453,-1132,2658,904,1690,-317
399,-1224,2790,892,1542,-288
366,-679,2867,824,1442,-196
332,-40,2766,781,1353,-183
259,-126,2391,736,1249,-251
108,-568,2171,560,1102,-245
-14,-387,2358,420,927,-147
-144,-142,2464,413,803,-108
-323,-307,2133,416,719,-104
-540,-244,1717,379,573,-53
-729,129,1459,335,348,-20
-819,132,1381,240,86,-50
-799,-26,1543,128,-186,-65
-662,11,1780,3,-429,-18
-461,170,1991,-149,-626,57
-271,428,1957,-347,-794,147
-212,610,1924,-559,-987,208
-197,802,1905,-725,-1200,216
-164,727,1654,-906,-1425,169
12,387,1707,-1122,-1710,132
199,-31,2080,-1322,-1978,136
381,-198,2588,-1416,-2162,165
518,-353,3033,-1420,-2231,185
560,-460,3229,-1327,-2227,192
697,-820,3190,-1147,-2184,153
879,-1112,3152,-996,-2140,158
1111,-777,3595,-839,-2095,184
1249,-350,3783,-639,-1966,122
1360,-286,3167,-472,-1815,17
1525,-462,3064,-458,-1796,-50
1597,-700,3696,-504,-1795,-56
1597,-700,3696,-504,-1795,-56
1433,-748,3533,-479,-1701,-2
1345,-877,3094,-400,-1677,8
1430,-983,3272,-306,-1751,10
1596,-1142,3918,-192,-1778,21
1695,-1147,4152,-58,-1679,70
1738,-793,3794,34,-1555,125
1841,-654,3824,66,-1516,110
2074,-902,4335,109,-1480,70
2279,-1163,4682,188,-1352,96
2348,-1113,4384,284,-1178,181
2370,-1072,3825,331,-1092,255
2417,-1307,3836,292,-1106,330
2485,-1361,3991,281,-1116,427
2607,-1210,4103,357,-1122,491
2761,-1008,4253,433,-1111,527
2872,-710,4405,468,-1063,537
2907,-475,4574,493,-990,499
2969,-509,4556,538,-907,439
3132,-849,4524,574,-841,409
3313,-1059,4645,595,-774,462
3403,-913,4522,611,-682,565
3365,-639,4394,570,-616,653
3396,-625,4675,554,-567,680
3474,-254,5001,651,-460,687
3526,354,4938,761,-303,632
3533,342,4689,780,-167,515
3472,-43,4555,744,-74,444
3358,-147,4614,713,-9,459
3264,119,4662,705,63,508
3203,263,4419,684,142,516
3193,-15,4288,631,182,511
3151,-171,4288,560,213,578
3157,-75,4205,488,257,674
3223,-5,4278,427,295,741
3313,129,4567,387,362,781
3404,704,4783,408,497,793
3435,1202,4605,460,665,708
3383,1129,4249,459,790,559
3267,898,4092,381,852,470
3107,795,4006,279,892,455
2861,645,3740,188,929,473
2592,533,3296,109,926,523
2393,410,2927,19,852,575
2292,359,2857,-88,739,626
2268,344,2975,-179,640,659
2222,295,3048,-241,579,670
2137,393,3116,-272,551,649
2171,596,3106,-259,553,570
1855,405,2967,-218,556,421
1679,168,2729,-136,538,307
1676,67,2622,-243,503,276
1655,211,2362,-246,410,239
1625,185,2156,-335,264,191
1568,-97,2448,-466,96,143
1574,-266,2797,-500,-17,133
1596,-287,2972,-460,-74,144
1615,-307,2994,-380,-102,138
1689,-401,3080,-296,-128,118
1781,-334,3227,-206,-140,103
1860,-174,3397,-149,-124,87
1897,-129,3446,-121,-77,57
1883,-258,3372,-124,-20,17
1827,-450,3307,-142,16,-2
1782,-556,3224,-118,29,4
1816,-560,3174,-99,20,30
1851,-545,3288,-134,11,57
1854,-504,3257,-137,22,69
1870,-494,3244,-112,23,55
1900,-453,3421,-98,16,38
1900,-453,3421,-98,16,38
1938,-436,3551,-84,30,31
1948,-484,3566,-65,55,24
1895,-503,3497,-62,77,28
1845,-500,3387,-76,82,42
1774,-567,3282,-102,60,56
1705,-663,3286,-135,17,82
1674,-707,3475,-172,-21,114
1718,-659,3643,-142,-34,121
1748,-559,3699,-88,-24,94
1737,-593,3725,-40,-10,26
1703,-764,3752,39,-4,-62
1774,-794,3697,152,-5,-123
1965,-593,3608,227,-21,-143
2214,-265,3768,219,-44,-143
2401,-107,4004,163,-29,-142


2353,101,6942,89,-184,-78
2009,148,6560,53,135,-111
1646,-212,6189,90,362,-219
1355,-548,6029,189,517,-291
1228,-688,5787,337,641,-318
1298,-639,5634,490,725,-329
1386,-735,5475,579,795,-339
1559,-1194,5438,646,860,-338
1662,-1381,5539,685,953,-264
1724,-1269,5613,732,1096,-174
1646,-1316,5454,756,1275,-110
1467,-1394,5168,766,1441,-42
1196,-1256,4729,791,1575,30
834,-926,4204,848,1643,47
511,-998,3717,885,1640,-11
296,-1397,3512,910,1570,-49
296,-1397,3512,910,1570,-49
141,-1562,3528,965,1487,-13
33,-1461,3362,1031,1443,70
27,-1510,3172,1049,1404,156
54,-1648,3176,1022,1356,263
30,-1486,3031,992,1326,402
-91,-1332,2719,971,1287,518
-251,-1271,2234,922,1213,624
-355,-1164,1810,870,1065,700
-407,-1391,1598,853,851,727
-343,-1509,1771,836,630,803
-297,-685,1936,837,477,923
-379,99,1674,823,386,935
-427,166,1293,712,263,891
-474,-105,1079,485,78,917
-566,-239,804,221,-141,1038
-637,-455,721,-56,-413,1193
-626,-522,898,-304,-698,1391
-555,-110,1104,-453,-964,1577
-499,449,1505,-484,-1209,1655
-419,1051,1908,-415,-1389,1625
-280,1948,2304,-280,-1519,1508
-17,3084,2695,-194,-1583,1251
51,3064,2805,-165,-1584,804
33,2286,2622,-177,-1588,422
-3,1964,2620,-214,-1660,253
-123,2312,2487,-289,-1761,217
-192,2413,2306,-438,-1902,170
-47,2089,2414,-697,-2110,155
171,2080,2945,-915,-2339,185
389,2403,3457,-1036,-2504,170
722,2454,4112,-1147,-2589,84
1074,2553,4886,-1213,-2562,-25
1272,2834,5039,-1182,-2412,-196
1477,3005,4922,-1143,-2259,-441
1687,2822,4895,-1149,-2162,-711
1931,2193,5150,-1261,-2096,-919
2232,2050,6062,-1398,-2009,-986
2236,2092,6353,-1418,-1794,-1041
2194,1339,6005,-1402,-1582,-1139
2219,1123,5836,-1395,-1478,-1113
2371,1241,5918,-1385,-1431,-1076
2744,580,6397,-1420,-1377,-1081
3059,-85,7236,-1437,-1209,-994
3225,-123,7450,-1304,-861,-857
3418,1,7396,-1097,-455,-796
3678,-295,7625,-949,-37,-806
3659,-569,7339,-820,444,-781
3455,-583,6532,-647,878,-755
3268,-972,6299,-434,1176,-782
3099,-1491,6306,-160,1457,-780
3081,-1906,6102,64,1755,-665
3185,-2271,6295,297,2049,-493
3097,-2513,6365,425,2428,-250
2882,-2129,5851,670,2849,-29
2539,-1867,4728,828,3220,87
2220,-1431,3834,936,3395,113
1768,-1261,3090,1022,3414,22
1215,-1547,2153,1160,3293,-112
827,-2289,1660,1244,2989,-185
655,-2377,2011,1261,2625,-97
544,-1754,2388,1260,2368,35
445,-896,2473,1265,2210,83
410,-316,2280,1246,2080,7
317,-284,1966,1134,1916,-108
94,-565,1582,901,1701,-145
-299,-206,1225,661,1423,-83
-690,430,1002,503,1086,-105
-886,242,1102,380,740,-253
-886,242,1102,380,740,-253
-948,-264,1250,276,442,-326
-969,-276,1330,175,173,-254
-928,-102,1200,45,-75,-158
-806,-223,1223,-197,-330,-58
-583,-382,1552,-480,-561,79
-424,-393,2009,-697,-730,217
-485,-283,2218,-734,-821,283
-737,-114,1895,-661,-894,290
-884,136,1729,-629,-1053,253
-901,504,1861,-611,-1252,170
-862,610,1971,-569,-1441,40
-674,-133,2075,-585,-1623,-78
-389,-820,2176,-643,-1801,-33
-25,-866,2470,-708,-1981,127
408,-727,3048,-769,-2098,266
733,-344,3325,-807,-2107,347
873,66,3372,-826,-2084,319
959,359,3989,-832,-2078,185
891,266,4360,-753,-1968,-8
748,-195,3694,-602,-1816,-149
769,-475,3250,-507,-1833,-175
1020,-655,3265,-506,-1929,-126
1270,-643,3528,-567,-2008,-25
1447,-388,3871,-579,-2030,60
1532,-412,3872,-534,-1990,75
1594,-522,3900,-470,-1947,69
1712,-675,4143,-395,-1893,48
1716,-755,3914,-319,-1789,38
1798,-895,3627,-278,-1738,21
1960,-1157,3928,-239,-1736,6
2077,-1146,4194,-139,-1673,39
2214,-1160,4219,-27,-1558,70
2380,-1173,4287,95,-1462,112
2375,-819,4201,200,-1365,184
2372,-714,3732,208,-1299,219
2478,-1019,3957,127,-1329,250
2492,-1123,4591,129,-1306,313
2386,-1278,4340,257,-1165,354
2380,-1191,3896,354,-1085,398
2531,-913,4088,386,-1079,402
2726,-775,4458,424,-1040,360
2932,-886,4570,482,-950,331
3051,-987,4654,505,-847,381
3008,-970,4610,526,-721,469
2975,-987,4535,571,-592,534
3077,-891,4663,633,-467,584
3218,-510,4802,720,-312,605
3219,-415,4617,790,-135,572
3155,-508,4482,828,1,556
3107,-403,4252,843,122,579
3042,-50,3542,854,165,598
3077,181,3636,788,82,576
3163,215,4382,721,42,533
3212,610,4817,719,135,516
3192,1036,4734,683,291,480
3165,859,4557,585,413,414
3081,463,4591,434,507,414
2905,472,4477,316,606,496
2760,500,4383,199,692,579
2628,415,4507,139,779,627
2450,569,4075,203,894,673
2226,1086,3327,273,919,662
2025,945,2959,206,812,576
2044,654,3185,40,656,536
2249,1029,3793,0,561,518
2225,1014,3852,-23,595,425
2146,695,3631,-82,648,358
2021,547,3556,-163,667,352
1892,519,3421,-226,672,363
1704,449,3139,-278,644,364
1704,449,3139,-278,644,364
1481,356,2913,-314,565,361
1322,496,2510,-333,432,351
1297,329,2423,-424,243,294
1379,-42,2749,-508,67,232
1515,-144,3042,-494,-37,201
1731,-1,3424,-447,-86,178
1938,-98,3542,-439,-55,141
1969,-478,3282,-456,-11,119
2077,-516,3353,-479,-49,166
2034,-230,3770,-488,-62,192
2058,-274,3714,-417,-7,134
2019,-359,3769,-326,18,75
1942,-459,3745,-223,42,34
1900,-579,3565,-148,46,29
1866,-652,3542,-118,18,51
1846,-564,3596,-99,-5,76
1812,-511,3591,-85,-10,71
1777,-575,3516,-64,-7,46
1763,-605,3461,-44,-14,17
1751,-531,3614,-30,-26,-6
1785,-395,3709,-12,-10,-37
1776,-450,3648,-7,10,-71
1798,-499,3614,-12,7,-81
1818,-548,3620,-34,-5,-75
1805,-598,3587,-53,-25,-57
1805,-575,3664,-67,-53,-31
1839,-490,3717,-72,-63,-14
1856,-578,3623,-83,-66,-20
1916,-618,3632,-99,-91,-8
1987,-614,3793,-129,-105,15
2020,-589,3851,-142,-85,29
1968,-605,3766,-140,-55,28
1904,-672,3655,-130,-33,22
1856,-700,3594,-113,-27,23
1837,-714,3577,-98,-30,28
1823,-751,3472,-92,-28,37
1792,-733,3430,-96,-38,48
1795,-646,3469,-82,-53,45
1815,-574,3447,-55,-59,19
1823,-614,3428,-41,-68,-16
1866,-701,3526,-50,-82,-37
1902,-785,3648,-35,-77,-35
1943,-714,3726,19,-57,-20


548,-496,3920,919,1296,244
544,-186,3780,879,1306,244
453,-384,3601,776,1287,238
312,-603,3567,646,1245,288
132,-541,3517,547,1216,372
-9,-579,3332,505,1198,418
-112,-763,3067,450,1160,465
-210,-887,2872,417,1083,543
-294,-999,2741,424,983,635
-322,-904,2811,432,873,741
-315,-353,2927,503,779,815
-255,722,3066,603,723,781
-256,1127,2884,671,704,590
-310,423,2607,597,662,416
-443,-131,2404,436,561,438
-549,-149,2254,233,429,580
-573,-285,2427,79,288,707
-658,-371,2347,68,186,828
-782,-563,1871,48,78,948
-892,-614,1660,-41,-102,1097
-956,-246,1686,-104,-314,1241
-958,784,1751,-121,-516,1298
-813,1407,1964,-99,-698,1143
-542,1452,2414,-84,-838,889
-263,1138,2942,-51,-904,672
-58,923,3135,-60,-894,593
-71,1167,2998,-140,-881,633
-271,1446,2541,-289,-932,686
-467,1415,1961,-532,-1085,729
-531,1401,1608,-828,-1355,773
-499,1564,1643,-1115,-1694,774
-450,1524,1901,-1423,-2027,726
-282,1303,2253,-1690,-2303,667
2,1338,3078,-1828,-2513,591
281,1748,4580,-1693,-2545,399
475,1365,4843,-1289,-2270,61
539,1103,4280,-947,-1972,-177
611,1562,4073,-753,-1835,-335
656,1682,3817,-719,-1792,-505
634,1472,3627,-819,-1837,-625
640,1325,3596,-1022,-1947,-660
734,1379,3574,-1282,-2091,-658
978,1379,3822,-1548,-2264,-690
1344,1135,4536,-1717,-2409,-777
1776,637,5916,-1772,-2411,-861
2040,586,6928,-1667,-2143,-864
2122,571,6535,-1489,-1708,-861
2234,502,6197,-1381,-1381,-871
2272,481,6260,-1277,-1134,-921
2311,212,6276,-1116,-889,-1023
2392,-68,6128,-935,-668,-1084
2572,-166,6038,-805,-503,-1072
2783,-324,6227,-731,-366,-1041
2949,-593,6395,-641,-191,-1001
3125,-931,6309,-578,3,-905
3258,-767,6486,-542,179,-762
3405,-761,7177,-504,418,-682
3405,-761,7177,-504,418,-682
3462,-1091,7179,-286,810,-660
3309,-1174,6870,-1,1213,-622
3058,-1291,6458,222,1580,-576
2909,-1522,5858,443,1883,-546
2641,-1958,5365,677,2085,-521
2418,-1842,5134,869,2214,-408
2103,-1052,4308,1102,2304,-328
1632,-1076,3164,1179,2247,-409
1368,-1532,3308,1101,2003,-467
1444,-1661,3652,1126,1832,-452
1574,-2006,3648,1144,1770,-410
1706,-2102,3719,1054,1737,-269
1831,-1685,4176,942,1746,-115
1825,-1137,4564,968,1849,-93
1695,-1124,4553,1090,2035,-187
1483,-1305,4193,1233,2213,-252
1123,-1191,3557,1306,2323,-240
635,-1040,2709,1282,2318,-223
158,-1010,2325,1199,2157,-223
-196,-901,2219,1144,1931,-230
-340,-819,2141,1112,1702,-222
-347,-985,2300,1063,1474,-207
-294,-1003,2608,1030,1295,-144
-251,-362,2638,1018,1180,-73
-293,104,2483,946,1083,-101
-344,-68,2356,846,971,-166
-451,-328,2127,695,840,-152
-567,-147,1924,512,667,-63
-690,117,1977,341,468,-3
-859,254,1905,205,293,19
-919,343,1903,65,106,54
-939,559,1751,-83,-77,105
-991,560,1278,-318,-295,150
-978,432,1186,-641,-593,200
-937,331,1398,-950,-895,239
-933,440,1501,-1186,-1150,250
-841,414,1575,-1373,-1388,208
-675,200,1728,-1517,-1605,164
-485,157,1814,-1614,-1806,141
-320,34,1947,-1704,-2005,99
-155,-78,2223,-1730,-2178,49
17,-529,2484,-1692,-2287,-6
238,-679,3279,-1584,-2332,-22
297,-352,3514,-1315,-2218,-69
336,-409,2903,-1093,-2067,-174
575,-269,2529,-977,-2070,-257
900,-210,2917,-954,-2159,-348
1139,-426,3256,-957,-2189,-391
1272,-435,3173,-1042,-2187,-324
1286,-370,3229,-1200,-2229,-258
1271,-409,3573,-1246,-2265,-284
1247,-760,3796,-1128,-2226,-378
1260,-1075,3332,-979,-2157,-419
1411,-1251,3068,-888,-2182,-416
1674,-1475,3620,-841,-2237,-389
1918,-1403,4153,-684,-2188,-331
2167,-1133,4525,-509,-2032,-282
2346,-1225,4346,-399,-1822,-241
2396,-1590,3757,-339,-1661,-163
2318,-1785,3388,-310,-1618,-51
2257,-1568,3256,-253,-1653,44
2325,-1628,3627,-189,-1698,66
2435,-1876,3979,-68,-1666,85
2537,-1901,4082,81,-1562,143
2664,-1683,4346,260,-1444,188
2787,-1540,4339,454,-1287,172
2962,-1619,4090,577,-1145,156
3164,-1571,4197,592,-1053,206
3164,-1571,4197,592,-1053,206
3272,-1644,4371,561,-948,285
3290,-1821,4143,584,-826,380
3265,-1952,3738,638,-738,483
3244,-1753,3760,708,-702,581
3211,-1314,3755,814,-662,612
3271,-847,3852,869,-634,569
3526,-689,4525,887,-605,481
3747,-601,5089,933,-491,438
3832,-554,5009,961,-330,464
3808,-713,4681,885,-204,551
3713,-1210,4647,778,-112,669
3539,-1351,4776,805,0,827
3412,-545,4733,947,155,956
3337,106,4512,1040,313,911
3307,-139,4352,1054,423,777
3370,-279,4467,1055,486,741
3509,77,4765,976,565,796
3511,114,4923,829,691,843
3322,-221,4842,694,857,904
3302,-15,4630,595,1020,1006
3103,283,4630,571,1146,1033
2792,665,4154,559,1274,1009
2450,1210,3146,482,1276,930
2200,843,3063,286,1092,760
2131,168,3559,135,912,684
2078,275,3942,108,843,735
2008,651,3868,180,859,744
1898,558,3484,234,882,662
1776,395,3270,231,862,591
1665,350,3154,218,824,549
1556,329,2840,172,769,524
1485,250,2732,54,653,516
1440,163,3038,-92,529,515
1416,97,3290,-151,483,502
1381,36,3103,-124,483,469
1339,0,2873,-115,451,428
1292,40,2727,-122,378,377
1233,54,2622,-128,268,296
1224,-67,2752,-172,140,208
1287,-189,2944,-205,38,139
1358,-254,3196,-204,-26,83
1476,-363,3480,-152,-52,27
1601,-505,3551,-102,-33,4
1648,-545,3567,-89,-17,25
1609,-498,3526,-95,-3,49
1524,-538,3330,-112,-2,49
1524,-476,3368,-111,-45,31
1606,-384,3599,-100,-78,-11
1692,-438,3629,-108,-74,-62
1717,-559,3676,-152,-79,-82
1701,-624,3686,-200,-91,-72
1633,-693,3594,-229,-102,-61
1612,-742,3544,-236,-129,-58
1674,-742,3684,-232,-166,-59
1752,-655,3868,-209,-178,-62
1806,-719,3835,-195,-162,-71
1789,-823,3817,-187,-157,-67
1794,-810,3885,-154,-155,-59
1829,-844,3921,-104,-125,-65
1808,-832,3863,-57,-90,-66
1815,-850,3804,-54,-64,-58
1836,-853,3832,-67,-49,-43
1817,-834,3753,-83,-31,-22
1757,-921,3554,-121,-26,0
1695,-947,3494,-156,-57,28
1675,-851,3557,-164,-91,48
1669,-806,3508,-153,-104,36
1688,-788,3413,-162,-122,17
1719,-796,3438,-182,-155,-1
1757,-823,3517,-210,-180,-16
1757,-823,3517,-210,-180,-16
1786,-909,3499,-235,-186,-24
1776,-999,3452,-243,-201,-19


-205,-718,2768,618,953,665
-274,-726,2539,603,852,689
-314,-200,2639,621,704,731
-334,142,2514,679,589,690
-338,-246,2309,563,477,662
-342,-291,2392,426,329,728
-440,-33,2198,365,207,790
-561,59,1833,259,77,816
-575,-33,1832,129,-107,820
-526,124,2266,51,-285,834
-510,110,2481,29,-373,816
-567,-114,2429,3,-429,814
-623,-146,2244,4,-516,864
-646,-299,2058,-11,-643,935
-602,-115,2165,-64,-805,1045
-519,922,2252,-110,-953,1124
-289,1942,2554,-202,-1089,1018
0,2173,3217,-336,-1176,772
203,1681,3604,-386,-1165,528
173,818,3413,-460,-1111,435
-40,687,3083,-468,-1138,488
-135,828,2829,-461,-1248,540
-110,523,2683,-528,-1394,554
-6,246,2914,-561,-1557,578
138,414,3306,-523,-1676,613
403,1203,3765,-532,-1731,636
737,2277,4346,-600,-1728,539
982,2106,4606,-689,-1647,274
982,2106,4606,-689,-1647,274
1075,1171,4754,-760,-1532,41
901,883,4658,-674,-1416,-60
675,1176,4055,-611,-1339,-103
586,1365,3627,-696,-1390,-159
590,1516,3613,-837,-1531,-234
630,1305,3599,-1019,-1677,-322
832,730,3834,-1214,-1820,-388
1097,553,4500,-1310,-1904,-408
1404,812,5253,-1266,-1855,-465
1561,910,5528,-1125,-1671,-618
1571,709,5171,-988,-1450,-795
1623,772,5184,-918,-1326,-922
1787,800,5710,-882,-1228,-1055
1955,383,6000,-860,-1046,-1173
2076,-163,5802,-868,-841,-1183
2061,-276,5586,-881,-714,-1083
2032,-271,5487,-892,-671,-970
2195,-185,5915,-905,-667,-876
2476,0,6524,-864,-587,-831
2677,-89,6839,-827,-392,-826
2959,-280,7171,-763,-138,-818
3175,-742,7024,-669,188,-799
3273,-972,6726,-584,504,-727
3272,-938,6721,-540,785,-648
3133,-1182,6647,-468,1085,-594
2753,-1403,6083,-235,1365,-538
2372,-1405,5208,-7,1541,-474
2169,-1492,4797,92,1591,-419
2093,-1665,4718,186,1604,-369
2091,-1977,4832,274,1642,-312
2029,-2102,4730,380,1743,-219
2016,-1819,4367,455,1849,-86
2042,-1426,4164,509,1906,-29
1916,-1109,4226,590,1939,-81
1622,-1136,3837,713,1999,-205
1305,-1428,3443,781,1992,-314
1115,-1481,3446,824,1918,-365
933,-1533,3422,851,1859,-370
776,-1694,3308,816,1812,-312
641,-1747,3161,797,1771,-233
456,-1726,3137,774,1733,-150
343,-1557,2988,829,1699,-78
96,-1434,2318,879,1651,-34
-226,-918,1777,860,1471,-12
-344,-668,2067,823,1195,-94
-318,-974,2438,829,1006,-196
-348,-1016,2398,816,908,-191
-419,-718,2348,789,808,-154
-406,-648,2302,784,708,-159
-393,-823,2111,709,607,-132
-449,-583,1832,546,480,-23
-575,-115,1511,335,300,64
-612,-190,1520,116,70,68
-587,-489,2016,11,-137,56
-624,-141,1990,41,-265,68
-625,238,1719,-15,-416,37
-470,138,1989,-193,-626,-9
-268,-99,2477,-349,-796,-10
-133,-144,2848,-474,-886,56
-192,295,2693,-564,-931,126
-257,590,2156,-682,-1025,106
-246,389,1961,-905,-1226,43
-176,156,2154,-1164,-1458,19
-103,105,2526,-1375,-1657,11
-8,-416,2746,-1466,-1785,-25
102,-996,2799,-1455,-1858,-5
296,-915,3117,-1369,-1905,63
527,-670,3410,-1212,-1884,61
721,-541,3353,-1038,-1820,-2
721,-541,3353,-1038,-1820,-2
899,-647,3348,-951,-1764,-85
1002,-751,3505,-886,-1722,-137
1034,-1031,3419,-841,-1669,-154
985,-1193,3232,-795,-1646,-125
848,-1195,3087,-699,-1665,-109
808,-1331,3001,-578,-1703,-111
915,-1418,2949,-447,-1756,-103
995,-1174,2814,-354,-1817,-78
1212,-806,2851,-346,-1897,-85
1582,-896,3520,-373,-1971,-150
1897,-1298,4302,-320,-1921,-198
2071,-1499,4469,-149,-1730,-179
2124,-1349,4285,84,-1552,-127
2155,-1229,4252,267,-1434,-99
2263,-1112,4294,365,-1332,-77
2438,-1117,4368,443,-1246,-63
2480,-1226,4270,505,-1164,-27
2371,-1007,3874,524,-1113,46
2329,-1006,3768,496,-1135,82
2371,-1336,4044,475,-1163,105
2404,-1147,4171,522,-1148,177
2469,-820,4076,579,-1114,202
2596,-990,4160,590,-1095,176
2715,-1095,4326,631,-1059,196
2785,-942,4331,686,-1000,246
2871,-709,4500,706,-935,279
3014,-731,4727,732,-834,283
3140,-762,4491,738,-703,323
3034,-828,4077,647,-622,385
2810,-1181,4121,551,-594,442
2677,-1402,4315,596,-545,518
2758,-1094,4623,742,-445,579
2970,-907,5081,939,-273,554
3101,-758,5222,1173,-36,507
3161,-569,4882,1291,194,487
3258,-945,4602,1314,341,491
3301,-982,4598,1295,437,611
3228,-76,4329,1251,523,759
3211,679,4186,1108,545,749
3194,476,4340,914,538,634
3197,-22,4442,757,552,608
3175,-107,4549,648,586,697
3110,365,4793,568,655,807
3007,695,4543,573,775,809
2893,373,4093,569,853,739
2797,92,4150,537,870,732
2702,433,4167,535,916,785
2460,998,3636,466,966,792
2256,1000,3168,267,929,713
2140,544,3248,47,817,644
2041,580,3548,-80,733,642
1926,880,3502,-106,715,601
1910,665,3363,-139,701,502
1876,328,3426,-191,671,459
1728,444,3548,-191,654,476
1524,635,3182,-173,669,465
1347,547,2722,-195,618,407
1276,263,2670,-252,491,356
1261,263,2796,-300,367,346
1286,329,2871,-340,272,321
1360,219,3001,-353,195,270
1472,114,3248,-364,151,232
1582,143,3545,-359,155,200
1595,-2,3577,-347,212,153
1517,-197,3464,-350,259,136
1404,-220,3345,-352,272,143
1280,-230,3202,-348,247,140
1182,-264,3199,-325,184,116
1140,-309,3227,-291,112,77
1140,-309,3227,-291,112,77
1185,-404,3289,-248,40,39
1256,-392,3309,-208,-18,13
1381,-331,3438,-202,-79,-16
1550,-310,3757,-205,-116,-66
1704,-404,4027,-189,-96,-114
1774,-628,4027,-177,-39,-131
1749,-750,3992,-188,5,-100
1638,-793,3794,-196,34,-49
1549,-859,3554,-204,17,0
1522,-852,3514,-215,-31,41
1543,-763,3619,-202,-77,59
1579,-648,3772,-171,-90,41
1651,-594,3901,-126,-74,-6
1738,-595,4003,-86,-29,-59
1761,-748,3902,-82,29,-92
1691,-868,3751,-107,58,-77
1568,-760,3706,-126,59,-45
1484,-707,3574,-136,57,-43
1448,-849,3411,-157,30,-50
1422,-1002,3396,-185,-17,-33
1416,-960,3437,-192,-67,4
1443,-726,3568,-195,-109,27
1514,-538,3791,-190,-123,2
1568,-698,3822,-176,-97,-47
1564,-902,3770,-148,-67,-62
1550,-840,3787,-95,-56,-44
1595,-834,3739,-58,-45,-31
1638,-876,3706,-54,-40,-12
1613,-757,3694,-58,-46,16
1591,-684,3567,-74,-57,28
1607,-803,3526,-103,-87,24


1271,-1296,4427,472,1261,86
1308,-1203,4664,592,1305,-13
1132,-1442,4544,745,1411,-144
973,-1457,4219,787,1505,-148
889,-1566,3579,823,1533,-107
790,-1696,3294,800,1439,-7
714,-1427,3327,785,1305,106
641,-1116,3389,774,1207,145
531,-1149,3318,724,1143,133
401,-1298,3197,618,1087,168
329,-1313,3258,537,1028,229
247,-1279,3550,537,1000,258
297,-1360,3600,619,1053,267
303,-1441,3422,714,1117,299
262,-1198,3245,815,1146,355
160,-791,2926,892,1135,391
81,-691,2789,870,1064,400
20,-580,2999,755,981,438
-104,-324,3124,689,934,467
-219,-575,2857,637,916,477
-331,-843,2681,540,852,552
-396,-434,2738,466,752,658
-453,-268,2630,406,682,683
-465,-800,2523,297,615,693
-457,-1027,2554,266,525,791
-496,-771,2507,336,446,885
-551,-456,2384,477,371,888
-608,-431,2057,575,287,840
-659,-476,1846,571,150,817
-705,-363,1665,542,-15,822
-772,-245,1572,435,-197,847
-905,145,1494,284,-389,875
-974,645,1429,134,-608,856
-857,899,1767,-30,-849,794
-618,743,2164,-172,-1044,756
-472,545,2318,-364,-1188,818
-449,827,2425,-547,-1333,946
-403,1231,2645,-607,-1478,978
-331,1440,2685,-621,-1594,891
-89,1862,2836,-680,-1703,767
150,2203,3259,-728,-1776,547
211,2067,3274,-751,-1771,286
148,1589,3051,-863,-1786,105
9,1187,3045,-1050,-1874,56
-96,997,3093,-1229,-2003,81
-36,1043,3335,-1347,-2147,95
160,1273,3777,-1366,-2264,28
475,1527,4580,-1326,-2303,-134
750,1690,4972,-1231,-2189,-356
999,1709,5374,-1145,-2012,-591
1119,1696,5669,-1087,-1808,-797
1128,1189,5010,-1094,-1607,-949
1219,463,4632,-1208,-1571,-994
1354,222,4934,-1368,-1627,-909
1546,523,5310,-1488,-1649,-805
1789,500,5720,-1554,-1622,-819
1975,209,6033,-1541,-1521,-888
2281,167,6358,-1450,-1363,-962
2641,54,7241,-1294,-1149,-1084
2800,-313,7235,-1092,-779,-1200
2935,-846,6662,-967,-428,-1227
3128,-1441,6897,-892,-184,-1163
3124,-1886,6804,-694,91,-1029
3013,-2079,6310,-486,350,-844
2907,-1606,6076,-389,530,-636
2751,-1177,5786,-299,674,-561
2577,-1655,5743,-262,788,-573
2492,-2127,5890,-196,943,-522
2402,-2167,6083,26,1164,-454
2402,-2167,6083,26,1164,-454
2237,-2072,6148,297,1448,-407
2127,-2089,5808,548,1765,-378
